"workerId","itemId","ENCODING","OPTION_0_CONDITION_NO","OPTION_1_CONDITION_NO","ITEM_FUNCTION","ITEM_SUBGROUP","ANSWER","ANSWER_CONDITION_NO","ANSWER_POSITION","PRESENTATION_ORDER","PRESENTATION_ORDER_CONDITION","rt","time_elapsed","trial_index"
271,"f28_1_3","f28",1,3,"calibration","unrelated","grammatical",1,"above","grammatical >> ?","condition 1 >> condition 3",10639,10645,0
271,"f29_1_2","f29",1,2,"calibration","unrelated","grammatical",1,"above","grammatical >> *","condition 1 >> condition 2",7279,17933,1
271,"f36_1_3","f36",1,3,"calibration","unrelated","grammatical",1,"above","grammatical >> ?","condition 1 >> condition 3",7605,25544,2
271,"f38_1_3","f38",1,3,"calibration","unrelated","grammatical",1,"above","grammatical >> ?","condition 1 >> condition 3",7827,33376,3
271,"f45_1_3","f45",1,3,"calibration","unrelated","grammatical",1,"below","? >> grammatical","condition 3 >> condition 1",8445,41828,4
271,"f23_1_2","f23",1,2,"calibration","pseudo_windef","grammatical",1,"below","* >> grammatical","condition 2 >> condition 1",5575,47410,5
271,"f46_1_3","f46",1,3,"filler","unrelated","grammatical",1,"below","? >> grammatical","condition 3 >> condition 1",6976,54392,6
271,"f02_1_2","f02",1,2,"control","related","SUBJ OBJfix",1,"above","SUBJ OBJfix >> *OBJfix SUBJ","condition 1 >> condition 2",11605,72818,8
271,"f35_1_3","f35",1,3,"filler","unrelated","grammatical",1,"below","? >> grammatical","condition 3 >> condition 1",6688,79508,9
271,"f11_1_2","f11",1,2,"control","unrelated","SUBJ OBJ",1,"above","SUBJ OBJ >> *OBJ SUBJ","condition 1 >> condition 2",6929,97164,11
271,"f34_1_3","f34",1,3,"filler","unrelated (pseudo_TEMP/CC)","grammatical",1,"below","? >> grammatical","condition 3 >> condition 1",8426,114400,13
271,"f06_1_2","f06",1,2,"control","related","SUBJ OBJfix",1,"below","*OBJfix SUBJ >> SUBJ OBJfix","condition 2 >> condition 1",5177,128419,15
271,"f47_1_3","f47",1,3,"filler","unrelated","grammatical",1,"above","grammatical >> ?","condition 1 >> condition 3",13698,150159,17
271,"f16_1_2","f16",1,2,"control","unrelated","SUBJ OBJ",1,"above","SUBJ OBJ >> *OBJ SUBJ","condition 1 >> condition 2",6543,156706,18
271,"f39_1_2","f39",1,2,"filler","pseudo_manner/INSTR","grammatical",1,"below","* >> grammatical","condition 2 >> condition 1",6263,170940,20
271,"f19_1_2","f19",1,2,"control","related","grammatical",1,"above","grammatical >> *","condition 1 >> condition 2",6425,177372,21
271,"f41_1_3","f41",1,3,"filler","unrelated (pseudo_CC)","grammatical",1,"above","grammatical >> ?","condition 1 >> condition 3",9641,192540,23
271,"f17_1_2","f17",1,2,"control","related","grammatical",1,"below","* >> grammatical","condition 2 >> condition 1",9967,202511,24
271,"f26_1_2","f26",1,2,"attention","pseudo_windef/TEMP","grammatical",1,"below","* >> grammatical","condition 2 >> condition 1",11776,214290,25
271,"f04_1_2","f04",1,2,"control","related","SUBJ OBJfix",1,"below","*OBJfix SUBJ >> SUBJ OBJfix","condition 2 >> condition 1",4996,225578,27
271,"f32_1_2","f32",1,2,"filler","unrelated (pseudo_TEMP)","grammatical",1,"below","* >> grammatical","condition 2 >> condition 1",5150,230730,28
271,"f15_1_2","f15",1,2,"control","unrelated","SUBJ OBJ",1,"above","SUBJ OBJ >> *OBJ SUBJ","condition 1 >> condition 2",4448,241134,30
271,"f33_1_3","f33",1,3,"filler","unrelated (pseudo_TEMP)","grammatical",1,"below","? >> grammatical","condition 3 >> condition 1",6902,248040,31
271,"f09_1_2","f09",1,2,"control","unrelated","SUBJ OBJ",1,"above","SUBJ OBJ >> *OBJ SUBJ","condition 1 >> condition 2",7564,264009,33
271,"f22_1_2","f22",1,2,"attention","pseudo_windef","grammatical",1,"above","grammatical >> *","condition 1 >> condition 2",9998,282048,35
271,"f03_1_2","f03",1,2,"control","related","SUBJ OBJfix",1,"above","SUBJ OBJfix >> *OBJfix SUBJ","condition 1 >> condition 2",6107,288160,36
271,"f44_1_3","f44",1,3,"filler","unrelated","grammatical",1,"above","grammatical >> ?","condition 1 >> condition 3",6904,300760,38
271,"f20_1_2","f20",1,2,"control","unrelated","grammatical",1,"below","* >> grammatical","condition 2 >> condition 1",5383,312468,40
271,"f37_1_2","f37",1,2,"attention","pseudo_COM/manner","grammatical",1,"above","grammatical >> *","condition 1 >> condition 2",31341,350549,42
271,"f10_1_2","f10",1,2,"control","unrelated","SUBJ OBJ",1,"above","SUBJ OBJ >> *OBJ SUBJ","condition 1 >> condition 2",6348,364691,44
271,"f48_1_2","f48",1,2,"attention","unrelated","grammatical",1,"below","* >> grammatical","condition 2 >> condition 1",10551,375244,45
271,"f13_1_2","f13",1,2,"control","unrelated","SUBJ OBJ",1,"below","*OBJ SUBJ >> SUBJ OBJ","condition 2 >> condition 1",4871,380118,46
271,"f27_1_3","f27",1,3,"filler","pseudo_windef/CC","grammatical",1,"below","? >> grammatical","condition 3 >> condition 1",5249,391838,48
271,"f14_1_2","f14",1,2,"control","unrelated","SUBJ OBJ",1,"below","*OBJ SUBJ >> SUBJ OBJ","condition 2 >> condition 1",5067,396909,49
271,"f24_1_2","f24",1,2,"attention","pseudo_windef","grammatical",1,"below","* >> grammatical","condition 2 >> condition 1",4980,410028,51
271,"f01_1_2","f01",1,2,"control","related","SUBJ OBJfix",1,"above","SUBJ OBJfix >> *OBJfix SUBJ","condition 1 >> condition 2",5394,415425,52
271,"f25_1_3","f25",1,3,"filler","pseudo_windef","grammatical",1,"above","grammatical >> ?","condition 1 >> condition 3",5202,428540,54
271,"f12_1_2","f12",1,2,"control","unrelated","SUBJ OBJ",1,"above","SUBJ OBJ >> *OBJ SUBJ","condition 1 >> condition 2",7863,436407,55
271,"f31_1_3","f31",1,3,"filler","unrelated","grammatical",1,"above","grammatical >> ?","condition 1 >> condition 3",7797,450534,57
271,"f05_1_2","f05",1,2,"control","related","SUBJ OBJfix",1,"above","SUBJ OBJfix >> *OBJfix SUBJ","condition 1 >> condition 2",4786,460101,59
271,"f40_1_3","f40",1,3,"filler","unrelated (pseudo_TEMP)","grammatical",1,"above","grammatical >> ?","condition 1 >> condition 3",9134,476208,61
271,"f18_1_2","f18",1,2,"control","unrelated","grammatical",1,"below","* >> grammatical","condition 2 >> condition 1",4450,480661,62
271,"f42_1_3","f42",1,3,"filler","unrelated (pseudo_manner)","grammatical",1,"below","? >> grammatical","condition 3 >> condition 1",5523,494474,64
271,"f07_1_2","f07",1,2,"control","related","SUBJ OBJfix",1,"above","SUBJ OBJfix >> *OBJfix SUBJ","condition 1 >> condition 2",4925,499403,65
271,"f43_1_2","f43",1,2,"attention","unrelated (pseudo_manner)","grammatical",1,"above","grammatical >> *","condition 1 >> condition 2",9407,515502,67
271,"f08_1_2","f08",1,2,"control","related","SUBJ OBJfix",1,"below","*OBJfix SUBJ >> SUBJ OBJfix","condition 2 >> condition 1",4442,519950,68
271,"f21_1_3","f21",1,3,"filler","pseudo_windef","grammatical",1,"above","grammatical >> ?","condition 1 >> condition 3",5596,525551,69
271,"f30_1_3","f30",1,3,"filler","pseudo_manner/COM","grammatical",1,"above","grammatical >> ?","condition 1 >> condition 3",7587,538860,71
270,"f36_1_3","f36",1,3,"calibration","unrelated","grammatical",1,"above","grammatical >> ?","condition 1 >> condition 3",10046,10048,0
270,"f28_1_3","f28",1,3,"calibration","unrelated","grammatical",1,"above","grammatical >> ?","condition 1 >> condition 3",11454,21508,1
270,"f45_1_3","f45",1,3,"calibration","unrelated","grammatical",1,"below","? >> grammatical","condition 3 >> condition 1",9840,31352,2
270,"f38_1_3","f38",1,3,"calibration","unrelated","grammatical",1,"above","grammatical >> ?","condition 1 >> condition 3",9385,40739,3
270,"f23_1_2","f23",1,2,"calibration","pseudo_windef","grammatical",1,"above","grammatical >> *","condition 1 >> condition 2",9540,50281,4
270,"f29_1_2","f29",1,2,"calibration","unrelated","grammatical",1,"below","* >> grammatical","condition 2 >> condition 1",7134,57417,5
270,"f40_1_3","f40",1,3,"filler","unrelated (pseudo_TEMP)","grammatical",1,"below","? >> grammatical","condition 3 >> condition 1",9913,86571,7
270,"f17_1_2","f17",1,2,"control","related","grammatical",1,"above","grammatical >> *","condition 1 >> condition 2",6857,106703,9
270,"f24_1_2","f24",1,2,"attention","pseudo_windef","grammatical",1,"above","grammatical >> *","condition 1 >> condition 2",16448,136474,11
270,"f14_1_2","f14",1,2,"control","unrelated","SUBJ OBJ",1,"above","SUBJ OBJ >> *OBJ SUBJ","condition 1 >> condition 2",11792,148268,12
270,"f35_1_3","f35",1,3,"filler","unrelated","grammatical",1,"below","? >> grammatical","condition 3 >> condition 1",8467,168540,14
270,"f08_1_2","f08",1,2,"control","related","SUBJ OBJfix",1,"above","SUBJ OBJfix >> *OBJfix SUBJ","condition 1 >> condition 2",7992,176534,15
270,"f27_1_3","f27",1,3,"filler","pseudo_windef/CC","grammatical",1,"above","grammatical >> ?","condition 1 >> condition 3",10822,198543,17
270,"f15_1_2","f15",1,2,"control","unrelated","SUBJ OBJ",1,"below","*OBJ SUBJ >> SUBJ OBJ","condition 2 >> condition 1",9125,207671,18
270,"f44_1_3","f44",1,3,"filler","unrelated","grammatical",1,"above","grammatical >> ?","condition 1 >> condition 3",10159,230565,20
270,"f01_1_2","f01",1,2,"control","related","SUBJ OBJfix",1,"above","SUBJ OBJfix >> *OBJfix SUBJ","condition 1 >> condition 2",28003,272934,22
270,"f47_1_3","f47",1,3,"filler","unrelated","grammatical",1,"below","? >> grammatical","condition 3 >> condition 1",13872,295562,24
270,"f07_1_2","f07",1,2,"control","related","SUBJ OBJfix",1,"below","*OBJfix SUBJ >> SUBJ OBJfix","condition 2 >> condition 1",20280,315844,25
270,"f41_1_3","f41",1,3,"filler","unrelated (pseudo_CC)","grammatical",1,"above","grammatical >> ?","condition 1 >> condition 3",10089,336860,27
270,"f20_1_2","f20",1,2,"control","unrelated","grammatical",1,"above","grammatical >> *","condition 1 >> condition 2",9708,346570,28
270,"f21_1_3","f21",1,3,"filler","pseudo_windef","grammatical",1,"above","grammatical >> ?","condition 1 >> condition 3",10579,369272,30
270,"f09_1_2","f09",1,2,"control","unrelated","SUBJ OBJ",1,"below","*OBJ SUBJ >> SUBJ OBJ","condition 2 >> condition 1",8101,377375,31
270,"f34_1_3","f34",1,3,"filler","unrelated (pseudo_TEMP/CC)","grammatical",1,"below","? >> grammatical","condition 3 >> condition 1",8516,394569,33
270,"f19_1_2","f19",1,2,"control","related","grammatical",1,"above","grammatical >> *","condition 1 >> condition 2",10510,405081,34
270,"f37_1_2","f37",1,2,"attention","pseudo_COM/manner","grammatical",1,"above","grammatical >> *","condition 1 >> condition 2",15444,427407,36
270,"f05_1_2","f05",1,2,"control","related","SUBJ OBJfix",1,"above","SUBJ OBJfix >> *OBJfix SUBJ","condition 1 >> condition 2",11356,450914,38
270,"f42_1_3","f42",1,3,"filler","unrelated (pseudo_manner)","grammatical",1,"above","grammatical >> ?","condition 1 >> condition 3",12040,473570,40
270,"f06_1_2","f06",1,2,"control","related","SUBJ OBJfix",1,"above","SUBJ OBJfix >> *OBJfix SUBJ","condition 1 >> condition 2",6280,479852,41
270,"f46_1_3","f46",1,3,"filler","unrelated","grammatical",1,"above","grammatical >> ?","condition 1 >> condition 3",10836,490690,42
270,"f12_1_2","f12",1,2,"control","unrelated","SUBJ OBJ",1,"below","*OBJ SUBJ >> SUBJ OBJ","condition 2 >> condition 1",9480,500172,43
270,"f39_1_2","f39",1,2,"filler","pseudo_manner/INSTR","grammatical",1,"above","grammatical >> *","condition 1 >> condition 2",33415,533588,44
270,"f16_1_2","f16",1,2,"control","unrelated","SUBJ OBJ",1,"above","SUBJ OBJ >> *OBJ SUBJ","condition 1 >> condition 2",10328,556938,46
270,"f43_1_2","f43",1,2,"attention","unrelated (pseudo_manner)","grammatical",1,"above","grammatical >> *","condition 1 >> condition 2",20556,577495,47
270,"f13_1_2","f13",1,2,"control","unrelated","SUBJ OBJ",1,"below","*OBJ SUBJ >> SUBJ OBJ","condition 2 >> condition 1",5764,583261,48
270,"f25_1_3","f25",1,3,"filler","pseudo_windef","grammatical",1,"above","grammatical >> ?","condition 1 >> condition 3",8208,600889,50
270,"f11_1_2","f11",1,2,"control","unrelated","SUBJ OBJ",1,"above","SUBJ OBJ >> *OBJ SUBJ","condition 1 >> condition 2",6853,619796,52
270,"f33_1_3","f33",1,3,"filler","unrelated (pseudo_TEMP)","grammatical",1,"above","grammatical >> ?","condition 1 >> condition 3",10896,640062,54
270,"f18_1_2","f18",1,2,"control","unrelated","grammatical",1,"above","grammatical >> *","condition 1 >> condition 2",16950,657014,55
270,"f26_1_2","f26",1,2,"attention","pseudo_windef/TEMP","grammatical",1,"above","grammatical >> *","condition 1 >> condition 2",13265,679078,57
270,"f02_1_2","f02",1,2,"control","related","SUBJ OBJfix",1,"below","*OBJfix SUBJ >> SUBJ OBJfix","condition 2 >> condition 1",10749,699696,59
270,"f31_1_3","f31",1,3,"filler","unrelated","grammatical",1,"above","grammatical >> ?","condition 1 >> condition 3",9871,709568,60
270,"f03_1_2","f03",1,2,"control","related","SUBJ OBJfix",1,"above","SUBJ OBJfix >> *OBJfix SUBJ","condition 1 >> condition 2",9333,732584,62
270,"f32_1_2","f32",1,2,"filler","unrelated (pseudo_TEMP)","grammatical",1,"above","grammatical >> *","condition 1 >> condition 2",8300,740886,63
270,"f10_1_2","f10",1,2,"control","unrelated","SUBJ OBJ",1,"above","SUBJ OBJ >> *OBJ SUBJ","condition 1 >> condition 2",8092,759309,65
270,"f30_1_3","f30",1,3,"filler","pseudo_manner/COM","grammatical",1,"below","? >> grammatical","condition 3 >> condition 1",15647,774959,66
270,"f04_1_2","f04",1,2,"control","related","SUBJ OBJfix",1,"below","*OBJfix SUBJ >> SUBJ OBJfix","condition 2 >> condition 1",7100,795140,68
270,"f22_1_2","f22",1,2,"attention","pseudo_windef","grammatical",1,"below","* >> grammatical","condition 2 >> condition 1",10324,815438,70
270,"f48_1_2","f48",1,2,"attention","unrelated","grammatical",1,"below","* >> grammatical","condition 2 >> condition 1",10145,825586,71
267,"f38_1_3","f38",1,3,"calibration","unrelated","grammatical",1,"above","grammatical >> ?","condition 1 >> condition 3",17186,17191,0
267,"f45_1_3","f45",1,3,"calibration","unrelated","grammatical",1,"above","grammatical >> ?","condition 1 >> condition 3",13677,30871,1
267,"f23_1_2","f23",1,2,"calibration","pseudo_windef","grammatical",1,"above","grammatical >> *","condition 1 >> condition 2",14081,44953,2
267,"f29_1_2","f29",1,2,"calibration","unrelated","grammatical",1,"above","grammatical >> *","condition 1 >> condition 2",10660,55616,3
267,"f28_1_3","f28",1,3,"calibration","unrelated","grammatical",1,"below","? >> grammatical","condition 3 >> condition 1",12749,68369,4
267,"f36_1_3","f36",1,3,"calibration","unrelated","grammatical",1,"below","? >> grammatical","condition 3 >> condition 1",9079,77450,5
267,"f25_1_3","f25",1,3,"filler","pseudo_windef","grammatical",1,"above","grammatical >> ?","condition 1 >> condition 3",13369,108409,7
267,"f06_1_2","f06",1,2,"control","related","SUBJ OBJfix",1,"below","*OBJfix SUBJ >> SUBJ OBJfix","condition 2 >> condition 1",11941,147673,9
267,"f48_1_2","f48",1,2,"attention","unrelated","grammatical",1,"above","grammatical >> *","condition 1 >> condition 2",14882,162556,10
267,"f14_1_2","f14",1,2,"control","unrelated","SUBJ OBJ",1,"below","*OBJ SUBJ >> SUBJ OBJ","condition 2 >> condition 1",6694,191447,12
267,"f26_1_2","f26",1,2,"attention","pseudo_windef/TEMP","grammatical",1,"below","* >> grammatical","condition 2 >> condition 1",11378,202826,13
267,"f16_1_2","f16",1,2,"control","unrelated","SUBJ OBJ",1,"below","*OBJ SUBJ >> SUBJ OBJ","condition 2 >> condition 1",6774,209602,14
267,"f37_1_2","f37",1,2,"attention","pseudo_COM/manner","grammatical",1,"above","grammatical >> *","condition 1 >> condition 2",16814,226416,15
267,"f05_1_2","f05",1,2,"control","related","SUBJ OBJfix",1,"below","*OBJfix SUBJ >> SUBJ OBJfix","condition 2 >> condition 1",9548,248225,17
267,"f21_1_3","f21",1,3,"filler","pseudo_windef","grammatical",1,"above","grammatical >> ?","condition 1 >> condition 3",12303,272520,19
267,"f20_1_2","f20",1,2,"control","unrelated","grammatical",1,"above","grammatical >> *","condition 1 >> condition 2",13282,285803,20
267,"f31_1_3","f31",1,3,"filler","unrelated","grammatical",1,"above","grammatical >> ?","condition 1 >> condition 3",10570,306448,22
267,"f04_1_2","f04",1,2,"control","related","SUBJ OBJfix",1,"below","*OBJfix SUBJ >> SUBJ OBJfix","condition 2 >> condition 1",8331,323017,24
267,"f43_1_2","f43",1,2,"attention","unrelated (pseudo_manner)","grammatical",1,"below","* >> grammatical","condition 2 >> condition 1",9789,346908,26
267,"f03_1_2","f03",1,2,"control","related","SUBJ OBJfix",1,"above","SUBJ OBJfix >> *OBJfix SUBJ","condition 1 >> condition 2",8121,363430,28
267,"f44_1_3","f44",1,3,"filler","unrelated","grammatical",1,"above","grammatical >> ?","condition 1 >> condition 3",10348,386212,30
267,"f10_1_2","f10",1,2,"control","unrelated","SUBJ OBJ",1,"above","SUBJ OBJ >> *OBJ SUBJ","condition 1 >> condition 2",10091,406260,32
267,"f42_1_3","f42",1,3,"filler","unrelated (pseudo_manner)","grammatical",1,"above","grammatical >> ?","condition 1 >> condition 3",16318,431797,34
267,"f19_1_2","f19",1,2,"control","related","grammatical",1,"below","* >> grammatical","condition 2 >> condition 1",14525,446323,35
267,"f47_1_3","f47",1,3,"filler","unrelated","grammatical",1,"above","grammatical >> ?","condition 1 >> condition 3",14076,471772,37
267,"f08_1_2","f08",1,2,"control","related","SUBJ OBJfix",1,"below","*OBJfix SUBJ >> SUBJ OBJfix","condition 2 >> condition 1",11598,498905,39
267,"f34_1_3","f34",1,3,"filler","unrelated (pseudo_TEMP/CC)","grammatical",1,"above","grammatical >> ?","condition 1 >> condition 3",17080,532918,41
267,"f02_1_2","f02",1,2,"control","related","SUBJ OBJfix",1,"above","SUBJ OBJfix >> *OBJfix SUBJ","condition 1 >> condition 2",17473,550392,42
267,"f30_1_3","f30",1,3,"filler","pseudo_manner/COM","grammatical",1,"above","grammatical >> ?","condition 1 >> condition 3",25708,576101,43
267,"f07_1_2","f07",1,2,"control","related","SUBJ OBJfix",1,"above","SUBJ OBJfix >> *OBJfix SUBJ","condition 1 >> condition 2",6811,592529,45
267,"f35_1_3","f35",1,3,"filler","unrelated","grammatical",1,"below","? >> grammatical","condition 3 >> condition 1",63047,655577,46
267,"f01_1_2","f01",1,2,"control","related","SUBJ OBJfix",1,"below","*OBJfix SUBJ >> SUBJ OBJfix","condition 2 >> condition 1",4709,667235,48
267,"f39_1_2","f39",1,2,"filler","pseudo_manner/INSTR","grammatical",1,"below","* >> grammatical","condition 2 >> condition 1",14981,682217,49
267,"f17_1_2","f17",1,2,"control","related","grammatical",1,"below","* >> grammatical","condition 2 >> condition 1",5253,687473,50
267,"f33_1_3","f33",1,3,"filler","unrelated (pseudo_TEMP)","grammatical",1,"below","? >> grammatical","condition 3 >> condition 1",8424,695898,51
267,"f09_1_2","f09",1,2,"control","unrelated","SUBJ OBJ",1,"above","SUBJ OBJ >> *OBJ SUBJ","condition 1 >> condition 2",9425,705325,52
267,"f32_1_2","f32",1,2,"filler","unrelated (pseudo_TEMP)","grammatical",1,"above","grammatical >> *","condition 1 >> condition 2",8290,720187,54
267,"f15_1_2","f15",1,2,"control","unrelated","SUBJ OBJ",1,"below","*OBJ SUBJ >> SUBJ OBJ","condition 2 >> condition 1",5328,725517,55
267,"f22_1_2","f22",1,2,"attention","pseudo_windef","grammatical",1,"below","* >> grammatical","condition 2 >> condition 1",7190,741227,57
267,"f18_1_2","f18",1,2,"control","unrelated","grammatical",1,"below","* >> grammatical","condition 2 >> condition 1",7203,748431,58
267,"f24_1_2","f24",1,2,"attention","pseudo_windef","grammatical",1,"above","grammatical >> *","condition 1 >> condition 2",6660,755094,59
267,"f13_1_2","f13",1,2,"control","unrelated","SUBJ OBJ",1,"above","SUBJ OBJ >> *OBJ SUBJ","condition 1 >> condition 2",7707,775376,61
267,"f40_1_3","f40",1,3,"filler","unrelated (pseudo_TEMP)","grammatical",1,"above","grammatical >> ?","condition 1 >> condition 3",11369,792706,63
267,"f12_1_2","f12",1,2,"control","unrelated","SUBJ OBJ",1,"below","*OBJ SUBJ >> SUBJ OBJ","condition 2 >> condition 1",5866,806681,65
267,"f27_1_3","f27",1,3,"filler","pseudo_windef/CC","grammatical",1,"above","grammatical >> ?","condition 1 >> condition 3",8600,833245,67
267,"f11_1_2","f11",1,2,"control","unrelated","SUBJ OBJ",1,"above","SUBJ OBJ >> *OBJ SUBJ","condition 1 >> condition 2",8949,842195,68
267,"f46_1_3","f46",1,3,"filler","unrelated","grammatical",1,"above","grammatical >> ?","condition 1 >> condition 3",9735,868217,70
267,"f41_1_3","f41",1,3,"filler","unrelated (pseudo_CC)","grammatical",1,"below","? >> grammatical","condition 3 >> condition 1",18272,886491,71
263,"f23_1_2","f23",1,2,"calibration","pseudo_windef","grammatical",1,"above","grammatical >> *","condition 1 >> condition 2",12508,12515,0
263,"f29_1_2","f29",1,2,"calibration","unrelated","grammatical",1,"above","grammatical >> *","condition 1 >> condition 2",4630,17156,1
263,"f36_1_3","f36",1,3,"calibration","unrelated","grammatical",1,"above","grammatical >> ?","condition 1 >> condition 3",5992,23159,2
263,"f28_1_3","f28",1,3,"calibration","unrelated","grammatical",1,"above","grammatical >> ?","condition 1 >> condition 3",7567,30739,3
263,"f38_1_3","f38",1,3,"calibration","unrelated","grammatical",1,"below","? >> grammatical","condition 3 >> condition 1",5534,36281,4
263,"f45_1_3","f45",1,3,"calibration","unrelated","grammatical",1,"above","grammatical >> ?","condition 1 >> condition 3",5460,41750,5
263,"f44_1_3","f44",1,3,"filler","unrelated","grammatical",1,"below","? >> grammatical","condition 3 >> condition 1",3468,45224,6
263,"f02_1_2","f02",1,2,"control","related","SUBJ OBJfix",1,"above","SUBJ OBJfix >> *OBJfix SUBJ","condition 1 >> condition 2",5352,50584,7
263,"f41_1_3","f41",1,3,"filler","unrelated (pseudo_CC)","grammatical",1,"below","? >> grammatical","condition 3 >> condition 1",9207,59801,8
263,"f06_1_2","f06",1,2,"control","related","SUBJ OBJfix",1,"above","SUBJ OBJfix >> *OBJfix SUBJ","condition 1 >> condition 2",5770,65579,9
263,"f30_1_3","f30",1,3,"filler","pseudo_manner/COM","grammatical",1,"above","grammatical >> ?","condition 1 >> condition 3",7888,278304,11
263,"f09_1_2","f09",1,2,"control","unrelated","SUBJ OBJ",1,"above","SUBJ OBJ >> *OBJ SUBJ","condition 1 >> condition 2",6591,284902,12
263,"f33_1_3","f33",1,3,"filler","unrelated (pseudo_TEMP)","grammatical",1,"above","grammatical >> ?","condition 1 >> condition 3",6167,291077,13
263,"f10_1_2","f10",1,2,"control","unrelated","SUBJ OBJ",1,"above","SUBJ OBJ >> *OBJ SUBJ","condition 1 >> condition 2",4058,295141,14
263,"f43_1_2","f43",1,2,"attention","unrelated (pseudo_manner)","grammatical",1,"below","* >> grammatical","condition 2 >> condition 1",11150,314234,16
263,"f15_1_2","f15",1,2,"control","unrelated","SUBJ OBJ",1,"below","*OBJ SUBJ >> SUBJ OBJ","condition 2 >> condition 1",3355,325351,18
263,"f21_1_3","f21",1,3,"filler","pseudo_windef","grammatical",1,"below","? >> grammatical","condition 3 >> condition 1",4758,336799,20
263,"f07_1_2","f07",1,2,"control","related","SUBJ OBJfix",1,"below","*OBJfix SUBJ >> SUBJ OBJfix","condition 2 >> condition 1",3302,348076,22
263,"f27_1_3","f27",1,3,"filler","pseudo_windef/CC","grammatical",1,"below","? >> grammatical","condition 3 >> condition 1",4974,357794,24
263,"f03_1_2","f03",1,2,"control","related","SUBJ OBJfix",1,"below","*OBJfix SUBJ >> SUBJ OBJfix","condition 2 >> condition 1",2895,360699,25
263,"f24_1_2","f24",1,2,"attention","pseudo_windef","grammatical",1,"below","* >> grammatical","condition 2 >> condition 1",5285,377493,27
263,"f12_1_2","f12",1,2,"control","unrelated","SUBJ OBJ",1,"above","SUBJ OBJ >> *OBJ SUBJ","condition 1 >> condition 2",4807,382316,28
263,"f31_1_3","f31",1,3,"filler","unrelated","grammatical",1,"below","? >> grammatical","condition 3 >> condition 1",4501,394132,30
263,"f11_1_2","f11",1,2,"control","unrelated","SUBJ OBJ",1,"below","*OBJ SUBJ >> SUBJ OBJ","condition 2 >> condition 1",2980,397118,31
263,"f35_1_3","f35",1,3,"filler","unrelated","grammatical",1,"below","? >> grammatical","condition 3 >> condition 1",3859,400985,32
263,"f18_1_2","f18",1,2,"control","unrelated","grammatical",1,"below","* >> grammatical","condition 2 >> condition 1",2771,408466,34
263,"f46_1_3","f46",1,3,"filler","unrelated","grammatical",1,"above","grammatical >> ?","condition 1 >> condition 3",4671,418720,36
263,"f08_1_2","f08",1,2,"control","related","SUBJ OBJfix",1,"below","*OBJfix SUBJ >> SUBJ OBJfix","condition 2 >> condition 1",4322,429100,38
263,"f42_1_3","f42",1,3,"filler","unrelated (pseudo_manner)","grammatical",1,"above","grammatical >> ?","condition 1 >> condition 3",5411,441907,40
263,"f05_1_2","f05",1,2,"control","related","SUBJ OBJfix",1,"below","*OBJfix SUBJ >> SUBJ OBJfix","condition 2 >> condition 1",2671,456438,42
263,"f26_1_2","f26",1,2,"attention","pseudo_windef/TEMP","grammatical",1,"above","grammatical >> *","condition 1 >> condition 2",5993,462438,43
263,"f20_1_2","f20",1,2,"control","unrelated","grammatical",1,"below","* >> grammatical","condition 2 >> condition 1",2659,470461,45
263,"f22_1_2","f22",1,2,"attention","pseudo_windef","grammatical",1,"above","grammatical >> *","condition 1 >> condition 2",5124,480975,47
263,"f13_1_2","f13",1,2,"control","unrelated","SUBJ OBJ",1,"above","SUBJ OBJ >> *OBJ SUBJ","condition 1 >> condition 2",3464,484446,48
263,"f37_1_2","f37",1,2,"attention","pseudo_COM/manner","grammatical",1,"above","grammatical >> *","condition 1 >> condition 2",6903,496203,50
263,"f01_1_2","f01",1,2,"control","related","SUBJ OBJfix",1,"above","SUBJ OBJfix >> *OBJfix SUBJ","condition 1 >> condition 2",6491,502701,51
263,"f34_1_3","f34",1,3,"filler","unrelated (pseudo_TEMP/CC)","grammatical",1,"above","grammatical >> ?","condition 1 >> condition 3",9866,518855,53
263,"f19_1_2","f19",1,2,"control","related","grammatical",1,"below","* >> grammatical","condition 2 >> condition 1",6993,525855,54
263,"f47_1_3","f47",1,3,"filler","unrelated","grammatical",1,"above","grammatical >> ?","condition 1 >> condition 3",4853,530718,55
263,"f16_1_2","f16",1,2,"control","unrelated","SUBJ OBJ",1,"below","*OBJ SUBJ >> SUBJ OBJ","condition 2 >> condition 1",2509,540361,57
263,"f48_1_2","f48",1,2,"attention","unrelated","grammatical",1,"below","* >> grammatical","condition 2 >> condition 1",9204,549575,58
263,"f14_1_2","f14",1,2,"control","unrelated","SUBJ OBJ",1,"above","SUBJ OBJ >> *OBJ SUBJ","condition 1 >> condition 2",6237,555819,59
263,"f40_1_3","f40",1,3,"filler","unrelated (pseudo_TEMP)","grammatical",1,"above","grammatical >> ?","condition 1 >> condition 3",8031,571355,61
263,"f04_1_2","f04",1,2,"control","related","SUBJ OBJfix",1,"above","SUBJ OBJfix >> *OBJfix SUBJ","condition 1 >> condition 2",3927,580758,63
263,"f32_1_2","f32",1,2,"filler","unrelated (pseudo_TEMP)","grammatical",1,"above","grammatical >> *","condition 1 >> condition 2",7071,592519,65
263,"f17_1_2","f17",1,2,"control","related","grammatical",1,"above","grammatical >> *","condition 1 >> condition 2",4481,600781,67
263,"f25_1_3","f25",1,3,"filler","pseudo_windef","grammatical",1,"above","grammatical >> ?","condition 1 >> condition 3",5410,611922,69
263,"f39_1_2","f39",1,2,"filler","pseudo_manner/INSTR","grammatical",1,"below","* >> grammatical","condition 2 >> condition 1",9611,627360,71
258,"f38_1_3","f38",1,3,"calibration","unrelated","grammatical",1,"above","grammatical >> ?","condition 1 >> condition 3",9472,9475,0
258,"f28_1_3","f28",1,3,"calibration","unrelated","grammatical",1,"above","grammatical >> ?","condition 1 >> condition 3",8929,18408,1
258,"f45_1_3","f45",1,3,"calibration","unrelated","grammatical",1,"above","grammatical >> ?","condition 1 >> condition 3",9836,28246,2
258,"f29_1_2","f29",1,2,"calibration","unrelated","grammatical",1,"below","* >> grammatical","condition 2 >> condition 1",7358,35605,3
258,"f36_1_3","f36",1,3,"calibration","unrelated","grammatical",1,"above","grammatical >> ?","condition 1 >> condition 3",8130,43737,4
258,"f23_1_2","f23",1,2,"calibration","pseudo_windef","grammatical",1,"below","* >> grammatical","condition 2 >> condition 1",5816,49555,5
258,"f41_1_3","f41",1,3,"filler","unrelated (pseudo_CC)","grammatical",1,"below","? >> grammatical","condition 3 >> condition 1",15811,65367,6
258,"f01_1_2","f01",1,2,"control","related","SUBJ OBJfix",1,"above","SUBJ OBJfix >> *OBJfix SUBJ","condition 1 >> condition 2",8470,73838,7
258,"f40_1_3","f40",1,3,"filler","unrelated (pseudo_TEMP)","grammatical",1,"below","? >> grammatical","condition 3 >> condition 1",7976,90065,9
258,"f06_1_2","f06",1,2,"control","related","SUBJ OBJfix",1,"below","*OBJfix SUBJ >> SUBJ OBJfix","condition 2 >> condition 1",6898,104686,11
258,"f44_1_3","f44",1,3,"filler","unrelated","grammatical",1,"below","? >> grammatical","condition 3 >> condition 1",4702,116679,13
258,"f20_1_2","f20",1,2,"control","unrelated","grammatical",1,"above","grammatical >> *","condition 1 >> condition 2",5368,122048,14
258,"f42_1_3","f42",1,3,"filler","unrelated (pseudo_manner)","grammatical",1,"below","? >> grammatical","condition 3 >> condition 1",7361,136754,16
258,"f07_1_2","f07",1,2,"control","related","SUBJ OBJfix",1,"below","*OBJfix SUBJ >> SUBJ OBJfix","condition 2 >> condition 1",7820,154236,18
258,"f24_1_2","f24",1,2,"attention","pseudo_windef","grammatical",1,"below","* >> grammatical","condition 2 >> condition 1",12737,176671,20
258,"f17_1_2","f17",1,2,"control","related","grammatical",1,"below","* >> grammatical","condition 2 >> condition 1",8638,185310,21
258,"f37_1_2","f37",1,2,"attention","pseudo_COM/manner","grammatical",1,"below","* >> grammatical","condition 2 >> condition 1",16817,213497,23
258,"f11_1_2","f11",1,2,"control","unrelated","SUBJ OBJ",1,"above","SUBJ OBJ >> *OBJ SUBJ","condition 1 >> condition 2",10139,223637,24
258,"f27_1_3","f27",1,3,"filler","pseudo_windef/CC","grammatical",1,"below","? >> grammatical","condition 3 >> condition 1",13380,237019,25
258,"f13_1_2","f13",1,2,"control","unrelated","SUBJ OBJ",1,"above","SUBJ OBJ >> *OBJ SUBJ","condition 1 >> condition 2",14197,251217,26
258,"f35_1_3","f35",1,3,"filler","unrelated","grammatical",1,"above","grammatical >> ?","condition 1 >> condition 3",9034,260252,27
258,"f18_1_2","f18",1,2,"control","unrelated","grammatical",1,"below","* >> grammatical","condition 2 >> condition 1",15660,283475,29
258,"f30_1_3","f30",1,3,"filler","pseudo_manner/COM","grammatical",1,"below","? >> grammatical","condition 3 >> condition 1",12981,304288,31
258,"f12_1_2","f12",1,2,"control","unrelated","SUBJ OBJ",1,"above","SUBJ OBJ >> *OBJ SUBJ","condition 1 >> condition 2",6523,325913,33
258,"f25_1_3","f25",1,3,"filler","pseudo_windef","grammatical",1,"above","grammatical >> ?","condition 1 >> condition 3",7270,333183,34
258,"f04_1_2","f04",1,2,"control","related","SUBJ OBJfix",1,"below","*OBJfix SUBJ >> SUBJ OBJfix","condition 2 >> condition 1",9412,359436,36
258,"f43_1_2","f43",1,2,"attention","unrelated (pseudo_manner)","grammatical",1,"above","grammatical >> *","condition 1 >> condition 2",16265,385076,38
258,"f05_1_2","f05",1,2,"control","related","SUBJ OBJfix",1,"above","SUBJ OBJfix >> *OBJfix SUBJ","condition 1 >> condition 2",11070,403765,40
258,"f34_1_3","f34",1,3,"filler","unrelated (pseudo_TEMP/CC)","grammatical",1,"above","grammatical >> ?","condition 1 >> condition 3",15264,419030,41
258,"f02_1_2","f02",1,2,"control","related","SUBJ OBJfix",1,"below","*OBJfix SUBJ >> SUBJ OBJfix","condition 2 >> condition 1",6970,433294,43
258,"f31_1_3","f31",1,3,"filler","unrelated","grammatical",1,"above","grammatical >> ?","condition 1 >> condition 3",12257,445552,44
258,"f19_1_2","f19",1,2,"control","related","grammatical",1,"above","grammatical >> *","condition 1 >> condition 2",7259,459056,46
258,"f33_1_3","f33",1,3,"filler","unrelated (pseudo_TEMP)","grammatical",1,"above","grammatical >> ?","condition 1 >> condition 3",5630,474870,48
258,"f03_1_2","f03",1,2,"control","related","SUBJ OBJfix",1,"above","SUBJ OBJfix >> *OBJfix SUBJ","condition 1 >> condition 2",5068,479939,49
258,"f46_1_3","f46",1,3,"filler","unrelated","grammatical",1,"above","grammatical >> ?","condition 1 >> condition 3",6131,498946,51
258,"f10_1_2","f10",1,2,"control","unrelated","SUBJ OBJ",1,"below","*OBJ SUBJ >> SUBJ OBJ","condition 2 >> condition 1",8127,516628,53
258,"f39_1_2","f39",1,2,"filler","pseudo_manner/INSTR","grammatical",1,"above","grammatical >> *","condition 1 >> condition 2",12831,537467,55
258,"f09_1_2","f09",1,2,"control","unrelated","SUBJ OBJ",1,"below","*OBJ SUBJ >> SUBJ OBJ","condition 2 >> condition 1",5471,542939,56
258,"f22_1_2","f22",1,2,"attention","pseudo_windef","grammatical",1,"below","* >> grammatical","condition 2 >> condition 1",9260,566299,58
258,"f14_1_2","f14",1,2,"control","unrelated","SUBJ OBJ",1,"below","*OBJ SUBJ >> SUBJ OBJ","condition 2 >> condition 1",8106,583852,60
258,"f47_1_3","f47",1,3,"filler","unrelated","grammatical",1,"above","grammatical >> ?","condition 1 >> condition 3",7036,590890,61
258,"f08_1_2","f08",1,2,"control","related","SUBJ OBJfix",1,"above","SUBJ OBJfix >> *OBJfix SUBJ","condition 1 >> condition 2",7687,598579,62
258,"f48_1_2","f48",1,2,"attention","unrelated","grammatical",1,"below","* >> grammatical","condition 2 >> condition 1",9825,622315,64
258,"f16_1_2","f16",1,2,"control","unrelated","SUBJ OBJ",1,"below","*OBJ SUBJ >> SUBJ OBJ","condition 2 >> condition 1",7739,630055,65
258,"f26_1_2","f26",1,2,"attention","pseudo_windef/TEMP","grammatical",1,"above","grammatical >> *","condition 1 >> condition 2",12250,648986,67
258,"f15_1_2","f15",1,2,"control","unrelated","SUBJ OBJ",1,"below","*OBJ SUBJ >> SUBJ OBJ","condition 2 >> condition 1",5374,654361,68
258,"f32_1_2","f32",1,2,"filler","unrelated (pseudo_TEMP)","grammatical",1,"above","grammatical >> *","condition 1 >> condition 2",11780,675214,70
258,"f21_1_3","f21",1,3,"filler","pseudo_windef","grammatical",1,"below","? >> grammatical","condition 3 >> condition 1",7214,682430,71
257,"f23_1_2","f23",1,2,"calibration","pseudo_windef","grammatical",1,"above","grammatical >> *","condition 1 >> condition 2",9441,9442,0
257,"f45_1_3","f45",1,3,"calibration","unrelated","grammatical",1,"above","grammatical >> ?","condition 1 >> condition 3",14351,23798,1
257,"f28_1_3","f28",1,3,"calibration","unrelated","grammatical",1,"above","grammatical >> ?","condition 1 >> condition 3",7614,31418,2
257,"f36_1_3","f36",1,3,"calibration","unrelated","grammatical",1,"above","grammatical >> ?","condition 1 >> condition 3",6780,38204,3
257,"f29_1_2","f29",1,2,"calibration","unrelated","grammatical",1,"above","grammatical >> *","condition 1 >> condition 2",7207,45413,4
257,"f38_1_3","f38",1,3,"calibration","unrelated","grammatical",1,"above","grammatical >> ?","condition 1 >> condition 3",10047,55462,5
257,"f39_1_2","f39",1,2,"filler","pseudo_manner/INSTR","grammatical",1,"below","* >> grammatical","condition 2 >> condition 1",10832,82218,7
257,"f20_1_2","f20",1,2,"control","unrelated","grammatical",1,"above","grammatical >> *","condition 1 >> condition 2",14569,110987,9
257,"f46_1_3","f46",1,3,"filler","unrelated","grammatical",1,"below","? >> grammatical","condition 3 >> condition 1",7745,118735,10
257,"f09_1_2","f09",1,2,"control","unrelated","SUBJ OBJ",1,"above","SUBJ OBJ >> *OBJ SUBJ","condition 1 >> condition 2",11814,139713,12
257,"f43_1_2","f43",1,2,"attention","unrelated (pseudo_manner)","grammatical",1,"below","* >> grammatical","condition 2 >> condition 1",16361,167281,14
257,"f01_1_2","f01",1,2,"control","related","SUBJ OBJfix",1,"below","*OBJfix SUBJ >> SUBJ OBJfix","condition 2 >> condition 1",8557,175840,15
257,"f34_1_3","f34",1,3,"filler","unrelated (pseudo_TEMP/CC)","grammatical",1,"below","? >> grammatical","condition 3 >> condition 1",11050,186892,16
257,"f13_1_2","f13",1,2,"control","unrelated","SUBJ OBJ",1,"above","SUBJ OBJ >> *OBJ SUBJ","condition 1 >> condition 2",6849,193743,17
257,"f30_1_3","f30",1,3,"filler","pseudo_manner/COM","grammatical",1,"below","? >> grammatical","condition 3 >> condition 1",14504,208248,18
257,"f16_1_2","f16",1,2,"control","unrelated","SUBJ OBJ",1,"below","*OBJ SUBJ >> SUBJ OBJ","condition 2 >> condition 1",7782,228085,20
257,"f26_1_2","f26",1,2,"attention","pseudo_windef/TEMP","grammatical",1,"above","grammatical >> *","condition 1 >> condition 2",11464,254561,22
257,"f17_1_2","f17",1,2,"control","related","grammatical",1,"below","* >> grammatical","condition 2 >> condition 1",4649,271167,24
257,"f37_1_2","f37",1,2,"attention","pseudo_COM/manner","grammatical",1,"above","grammatical >> *","condition 1 >> condition 2",17793,288963,25
257,"f15_1_2","f15",1,2,"control","unrelated","SUBJ OBJ",1,"above","SUBJ OBJ >> *OBJ SUBJ","condition 1 >> condition 2",6735,305860,27
257,"f21_1_3","f21",1,3,"filler","pseudo_windef","grammatical",1,"above","grammatical >> ?","condition 1 >> condition 3",9645,323072,29
257,"f03_1_2","f03",1,2,"control","related","SUBJ OBJfix",1,"below","*OBJfix SUBJ >> SUBJ OBJfix","condition 2 >> condition 1",7694,330771,30
257,"f47_1_3","f47",1,3,"filler","unrelated","grammatical",1,"above","grammatical >> ?","condition 1 >> condition 3",10212,340988,31
257,"f07_1_2","f07",1,2,"control","related","SUBJ OBJfix",1,"below","*OBJfix SUBJ >> SUBJ OBJfix","condition 2 >> condition 1",7110,361745,33
257,"f31_1_3","f31",1,3,"filler","unrelated","grammatical",1,"above","grammatical >> ?","condition 1 >> condition 3",9771,371517,34
257,"f04_1_2","f04",1,2,"control","related","SUBJ OBJfix",1,"above","SUBJ OBJfix >> *OBJfix SUBJ","condition 1 >> condition 2",7442,387358,36
257,"f44_1_3","f44",1,3,"filler","unrelated","grammatical",1,"above","grammatical >> ?","condition 1 >> condition 3",8181,404128,38
257,"f19_1_2","f19",1,2,"control","related","grammatical",1,"below","* >> grammatical","condition 2 >> condition 1",7347,411476,39
257,"f32_1_2","f32",1,2,"filler","unrelated (pseudo_TEMP)","grammatical",1,"above","grammatical >> *","condition 1 >> condition 2",7462,418942,40
257,"f08_1_2","f08",1,2,"control","related","SUBJ OBJfix",1,"above","SUBJ OBJfix >> *OBJfix SUBJ","condition 1 >> condition 2",7520,426466,41
257,"f33_1_3","f33",1,3,"filler","unrelated (pseudo_TEMP)","grammatical",1,"below","? >> grammatical","condition 3 >> condition 1",6705,440898,43
257,"f11_1_2","f11",1,2,"control","unrelated","SUBJ OBJ",1,"below","*OBJ SUBJ >> SUBJ OBJ","condition 2 >> condition 1",6304,456157,45
257,"f25_1_3","f25",1,3,"filler","pseudo_windef","grammatical",1,"below","? >> grammatical","condition 3 >> condition 1",5446,461606,46
257,"f02_1_2","f02",1,2,"control","related","SUBJ OBJfix",1,"above","SUBJ OBJfix >> *OBJfix SUBJ","condition 1 >> condition 2",7275,478723,48
257,"f41_1_3","f41",1,3,"filler","unrelated (pseudo_CC)","grammatical",1,"above","grammatical >> ?","condition 1 >> condition 3",9441,495318,50
257,"f14_1_2","f14",1,2,"control","unrelated","SUBJ OBJ",1,"below","*OBJ SUBJ >> SUBJ OBJ","condition 2 >> condition 1",5631,510797,52
257,"f24_1_2","f24",1,2,"attention","pseudo_windef","grammatical",1,"above","grammatical >> *","condition 1 >> condition 2",10358,529522,54
257,"f12_1_2","f12",1,2,"control","unrelated","SUBJ OBJ",1,"above","SUBJ OBJ >> *OBJ SUBJ","condition 1 >> condition 2",7575,546641,56
257,"f27_1_3","f27",1,3,"filler","pseudo_windef/CC","grammatical",1,"below","? >> grammatical","condition 3 >> condition 1",7642,565726,58
257,"f10_1_2","f10",1,2,"control","unrelated","SUBJ OBJ",1,"above","SUBJ OBJ >> *OBJ SUBJ","condition 1 >> condition 2",9563,575291,59
257,"f35_1_3","f35",1,3,"filler","unrelated","grammatical",1,"below","? >> grammatical","condition 3 >> condition 1",10937,600655,61
257,"f05_1_2","f05",1,2,"control","related","SUBJ OBJfix",1,"above","SUBJ OBJfix >> *OBJfix SUBJ","condition 1 >> condition 2",5438,606096,62
257,"f42_1_3","f42",1,3,"filler","unrelated (pseudo_manner)","grammatical",1,"above","grammatical >> ?","condition 1 >> condition 3",13901,619999,63
257,"f06_1_2","f06",1,2,"control","related","SUBJ OBJfix",1,"below","*OBJfix SUBJ >> SUBJ OBJfix","condition 2 >> condition 1",6881,637239,65
257,"f40_1_3","f40",1,3,"filler","unrelated (pseudo_TEMP)","grammatical",1,"below","? >> grammatical","condition 3 >> condition 1",8818,646059,66
257,"f18_1_2","f18",1,2,"control","unrelated","grammatical",1,"above","grammatical >> *","condition 1 >> condition 2",9833,663989,68
257,"f48_1_2","f48",1,2,"attention","unrelated","grammatical",1,"below","* >> grammatical","condition 2 >> condition 1",15297,679289,69
257,"f22_1_2","f22",1,2,"attention","pseudo_windef","grammatical",1,"above","grammatical >> *","condition 1 >> condition 2",15053,704198,71
255,"f36_1_3","f36",1,3,"calibration","unrelated","grammatical",1,"below","? >> grammatical","condition 3 >> condition 1",12381,12384,0
255,"f45_1_3","f45",1,3,"calibration","unrelated","grammatical",1,"above","grammatical >> ?","condition 1 >> condition 3",41230,53627,1
255,"f28_1_3","f28",1,3,"calibration","unrelated","grammatical",1,"above","grammatical >> ?","condition 1 >> condition 3",10443,64072,2
255,"f29_1_2","f29",1,2,"calibration","unrelated","grammatical",1,"above","grammatical >> *","condition 1 >> condition 2",8630,72705,3
255,"f38_1_3","f38",1,3,"calibration","unrelated","grammatical",1,"above","grammatical >> ?","condition 1 >> condition 3",25332,98040,4
255,"f23_1_2","f23",1,2,"calibration","pseudo_windef","grammatical",1,"below","* >> grammatical","condition 2 >> condition 1",8533,106574,5
255,"f25_1_3","f25",1,3,"filler","pseudo_windef","?",3,"below","grammatical >> ?","condition 1 >> condition 3",10129,132806,7
255,"f16_1_2","f16",1,2,"control","unrelated","SUBJ OBJ",1,"above","SUBJ OBJ >> *OBJ SUBJ","condition 1 >> condition 2",11719,163495,9
255,"f31_1_3","f31",1,3,"filler","unrelated","grammatical",1,"above","grammatical >> ?","condition 1 >> condition 3",10445,173944,10
255,"f09_1_2","f09",1,2,"control","unrelated","SUBJ OBJ",1,"above","SUBJ OBJ >> *OBJ SUBJ","condition 1 >> condition 2",9307,183253,11
255,"f46_1_3","f46",1,3,"filler","unrelated","grammatical",1,"above","grammatical >> ?","condition 1 >> condition 3",15738,198992,12
255,"f04_1_2","f04",1,2,"control","related","SUBJ OBJfix",1,"above","SUBJ OBJfix >> *OBJfix SUBJ","condition 1 >> condition 2",9679,222133,14
255,"f27_1_3","f27",1,3,"filler","pseudo_windef/CC","grammatical",1,"below","? >> grammatical","condition 3 >> condition 1",11820,244950,16
255,"f12_1_2","f12",1,2,"control","unrelated","*OBJ SUBJ",2,"above","*OBJ SUBJ >> SUBJ OBJ","condition 2 >> condition 1",17987,279780,18
255,"f22_1_2","f22",1,2,"attention","pseudo_windef","grammatical",1,"above","grammatical >> *","condition 1 >> condition 2",8442,288224,19
255,"f06_1_2","f06",1,2,"control","related","SUBJ OBJfix",1,"above","SUBJ OBJfix >> *OBJfix SUBJ","condition 1 >> condition 2",12877,301103,20
255,"f34_1_3","f34",1,3,"filler","unrelated (pseudo_TEMP/CC)","grammatical",1,"below","? >> grammatical","condition 3 >> condition 1",12375,321957,22
255,"f20_1_2","f20",1,2,"control","unrelated","grammatical",1,"above","grammatical >> *","condition 1 >> condition 2",19645,356277,24
255,"f37_1_2","f37",1,2,"attention","pseudo_COM/manner","grammatical",1,"above","grammatical >> *","condition 1 >> condition 2",21850,378130,25
255,"f14_1_2","f14",1,2,"control","unrelated","SUBJ OBJ",1,"below","*OBJ SUBJ >> SUBJ OBJ","condition 2 >> condition 1",10685,399553,27
255,"f39_1_2","f39",1,2,"filler","pseudo_manner/INSTR","grammatical",1,"above","grammatical >> *","condition 1 >> condition 2",18110,417664,28
255,"f08_1_2","f08",1,2,"control","related","SUBJ OBJfix",1,"above","SUBJ OBJfix >> *OBJfix SUBJ","condition 1 >> condition 2",16715,446869,30
255,"f35_1_3","f35",1,3,"filler","unrelated","grammatical",1,"above","grammatical >> ?","condition 1 >> condition 3",13288,473355,32
255,"f17_1_2","f17",1,2,"control","related","grammatical",1,"above","grammatical >> *","condition 1 >> condition 2",7000,480357,33
255,"f32_1_2","f32",1,2,"filler","unrelated (pseudo_TEMP)","grammatical",1,"above","grammatical >> *","condition 1 >> condition 2",12200,506112,35
255,"f15_1_2","f15",1,2,"control","unrelated","SUBJ OBJ",1,"above","SUBJ OBJ >> *OBJ SUBJ","condition 1 >> condition 2",16047,534294,37
255,"f41_1_3","f41",1,3,"filler","unrelated (pseudo_CC)","grammatical",1,"below","? >> grammatical","condition 3 >> condition 1",10686,555602,39
255,"f05_1_2","f05",1,2,"control","related","SUBJ OBJfix",1,"above","SUBJ OBJfix >> *OBJfix SUBJ","condition 1 >> condition 2",11690,567293,40
255,"f44_1_3","f44",1,3,"filler","unrelated","grammatical",1,"above","grammatical >> ?","condition 1 >> condition 3",11642,585125,42
255,"f13_1_2","f13",1,2,"control","unrelated","SUBJ OBJ",1,"below","*OBJ SUBJ >> SUBJ OBJ","condition 2 >> condition 1",5543,596726,44
255,"f47_1_3","f47",1,3,"filler","unrelated","grammatical",1,"below","? >> grammatical","condition 3 >> condition 1",10178,619498,46
255,"f01_1_2","f01",1,2,"control","related","SUBJ OBJfix",1,"above","SUBJ OBJfix >> *OBJfix SUBJ","condition 1 >> condition 2",15635,635134,47
255,"f48_1_2","f48",1,2,"attention","unrelated","grammatical",1,"below","* >> grammatical","condition 2 >> condition 1",12673,647808,48
255,"f02_1_2","f02",1,2,"control","related","SUBJ OBJfix",1,"below","*OBJfix SUBJ >> SUBJ OBJfix","condition 2 >> condition 1",12264,683267,50
255,"f42_1_3","f42",1,3,"filler","unrelated (pseudo_manner)","grammatical",1,"above","grammatical >> ?","condition 1 >> condition 3",15872,713501,52
255,"f11_1_2","f11",1,2,"control","unrelated","SUBJ OBJ",1,"below","*OBJ SUBJ >> SUBJ OBJ","condition 2 >> condition 1",8926,722429,53
255,"f33_1_3","f33",1,3,"filler","unrelated (pseudo_TEMP)","grammatical",1,"below","? >> grammatical","condition 3 >> condition 1",15312,737742,54
255,"f18_1_2","f18",1,2,"control","unrelated","grammatical",1,"above","grammatical >> *","condition 1 >> condition 2",10400,757847,56
255,"f24_1_2","f24",1,2,"attention","pseudo_windef","grammatical",1,"below","* >> grammatical","condition 2 >> condition 1",6631,772009,58
255,"f03_1_2","f03",1,2,"control","related","SUBJ OBJfix",1,"above","SUBJ OBJfix >> *OBJfix SUBJ","condition 1 >> condition 2",14656,786666,59
255,"f21_1_3","f21",1,3,"filler","pseudo_windef","grammatical",1,"above","grammatical >> ?","condition 1 >> condition 3",11793,806456,61
255,"f07_1_2","f07",1,2,"control","related","SUBJ OBJfix",1,"above","SUBJ OBJfix >> *OBJfix SUBJ","condition 1 >> condition 2",10097,816555,62
255,"f40_1_3","f40",1,3,"filler","unrelated (pseudo_TEMP)","grammatical",1,"above","grammatical >> ?","condition 1 >> condition 3",11646,828202,63
255,"f10_1_2","f10",1,2,"control","unrelated","SUBJ OBJ",1,"above","SUBJ OBJ >> *OBJ SUBJ","condition 1 >> condition 2",11844,853768,65
255,"f43_1_2","f43",1,2,"attention","unrelated (pseudo_manner)","grammatical",1,"below","* >> grammatical","condition 2 >> condition 1",11209,872566,67
255,"f19_1_2","f19",1,2,"control","related","grammatical",1,"above","grammatical >> *","condition 1 >> condition 2",10783,883350,68
255,"f30_1_3","f30",1,3,"filler","pseudo_manner/COM","grammatical",1,"above","grammatical >> ?","condition 1 >> condition 3",9378,892729,69
255,"f26_1_2","f26",1,2,"attention","pseudo_windef/TEMP","grammatical",1,"below","* >> grammatical","condition 2 >> condition 1",12113,913585,71
254,"f38_1_3","f38",1,3,"calibration","unrelated","grammatical",1,"above","grammatical >> ?","condition 1 >> condition 3",17548,17549,0
254,"f23_1_2","f23",1,2,"calibration","pseudo_windef","grammatical",1,"above","grammatical >> *","condition 1 >> condition 2",11777,29329,1
254,"f45_1_3","f45",1,3,"calibration","unrelated","grammatical",1,"above","grammatical >> ?","condition 1 >> condition 3",20362,49691,2
254,"f36_1_3","f36",1,3,"calibration","unrelated","grammatical",1,"below","? >> grammatical","condition 3 >> condition 1",8454,58147,3
254,"f28_1_3","f28",1,3,"calibration","unrelated","grammatical",1,"below","? >> grammatical","condition 3 >> condition 1",9173,67320,4
254,"f29_1_2","f29",1,2,"calibration","unrelated","grammatical",1,"above","grammatical >> *","condition 1 >> condition 2",9075,76396,5
254,"f37_1_2","f37",1,2,"attention","pseudo_COM/manner","grammatical",1,"below","* >> grammatical","condition 2 >> condition 1",16650,93047,6
254,"f05_1_2","f05",1,2,"control","related","SUBJ OBJfix",1,"above","SUBJ OBJfix >> *OBJfix SUBJ","condition 1 >> condition 2",15301,108348,7
254,"f41_1_3","f41",1,3,"filler","unrelated (pseudo_CC)","grammatical",1,"below","? >> grammatical","condition 3 >> condition 1",23467,151046,9
254,"f02_1_2","f02",1,2,"control","related","SUBJ OBJfix",1,"below","*OBJfix SUBJ >> SUBJ OBJfix","condition 2 >> condition 1",11164,177454,11
254,"f25_1_3","f25",1,3,"filler","pseudo_windef","grammatical",1,"below","? >> grammatical","condition 3 >> condition 1",32593,210049,12
254,"f10_1_2","f10",1,2,"control","unrelated","SUBJ OBJ",1,"below","*OBJ SUBJ >> SUBJ OBJ","condition 2 >> condition 1",6845,231464,14
254,"f43_1_2","f43",1,2,"attention","unrelated (pseudo_manner)","grammatical",1,"above","grammatical >> *","condition 1 >> condition 2",11230,242695,15
254,"f13_1_2","f13",1,2,"control","unrelated","SUBJ OBJ",1,"below","*OBJ SUBJ >> SUBJ OBJ","condition 2 >> condition 1",5944,255807,17
254,"f48_1_2","f48",1,2,"attention","unrelated","grammatical",1,"above","grammatical >> *","condition 1 >> condition 2",10979,295879,19
254,"f07_1_2","f07",1,2,"control","related","SUBJ OBJfix",1,"above","SUBJ OBJfix >> *OBJfix SUBJ","condition 1 >> condition 2",9733,305612,20
254,"f31_1_3","f31",1,3,"filler","unrelated","grammatical",1,"above","grammatical >> ?","condition 1 >> condition 3",12549,333242,22
254,"f20_1_2","f20",1,2,"control","unrelated","grammatical",1,"above","grammatical >> *","condition 1 >> condition 2",6608,339851,23
254,"f26_1_2","f26",1,2,"attention","pseudo_windef/TEMP","grammatical",1,"below","* >> grammatical","condition 2 >> condition 1",34871,404188,25
254,"f17_1_2","f17",1,2,"control","related","grammatical",1,"below","* >> grammatical","condition 2 >> condition 1",6113,421202,27
254,"f30_1_3","f30",1,3,"filler","pseudo_manner/COM","grammatical",1,"below","? >> grammatical","condition 3 >> condition 1",16133,456544,29
254,"f14_1_2","f14",1,2,"control","unrelated","SUBJ OBJ",1,"above","SUBJ OBJ >> *OBJ SUBJ","condition 1 >> condition 2",6027,469644,31
254,"f24_1_2","f24",1,2,"attention","pseudo_windef","grammatical",1,"above","grammatical >> *","condition 1 >> condition 2",6781,476426,32
254,"f16_1_2","f16",1,2,"control","unrelated","SUBJ OBJ",1,"above","SUBJ OBJ >> *OBJ SUBJ","condition 1 >> condition 2",9751,486178,33
254,"f33_1_3","f33",1,3,"filler","unrelated (pseudo_TEMP)","grammatical",1,"above","grammatical >> ?","condition 1 >> condition 3",12018,512978,35
254,"f01_1_2","f01",1,2,"control","related","SUBJ OBJfix",1,"above","SUBJ OBJfix >> *OBJfix SUBJ","condition 1 >> condition 2",6435,519414,36
254,"f40_1_3","f40",1,3,"filler","unrelated (pseudo_TEMP)","grammatical",1,"above","grammatical >> ?","condition 1 >> condition 3",12406,540818,38
254,"f09_1_2","f09",1,2,"control","unrelated","SUBJ OBJ",1,"below","*OBJ SUBJ >> SUBJ OBJ","condition 2 >> condition 1",5313,563204,40
254,"f22_1_2","f22",1,2,"attention","pseudo_windef","grammatical",1,"below","* >> grammatical","condition 2 >> condition 1",7253,581066,42
254,"f04_1_2","f04",1,2,"control","related","SUBJ OBJfix",1,"below","*OBJfix SUBJ >> SUBJ OBJfix","condition 2 >> condition 1",10219,638882,44
254,"f35_1_3","f35",1,3,"filler","unrelated","grammatical",1,"below","? >> grammatical","condition 3 >> condition 1",5579,644462,45
254,"f11_1_2","f11",1,2,"control","unrelated","SUBJ OBJ",1,"above","SUBJ OBJ >> *OBJ SUBJ","condition 1 >> condition 2",6641,651104,46
254,"f46_1_3","f46",1,3,"filler","unrelated","grammatical",1,"above","grammatical >> ?","condition 1 >> condition 3",12987,674084,48
254,"f19_1_2","f19",1,2,"control","related","grammatical",1,"below","* >> grammatical","condition 2 >> condition 1",12438,686522,49
254,"f42_1_3","f42",1,3,"filler","unrelated (pseudo_manner)","?",3,"below","grammatical >> ?","condition 1 >> condition 3",13887,712350,51
254,"f03_1_2","f03",1,2,"control","related","SUBJ OBJfix",1,"below","*OBJfix SUBJ >> SUBJ OBJfix","condition 2 >> condition 1",14630,733236,53
254,"f27_1_3","f27",1,3,"filler","pseudo_windef/CC","grammatical",1,"above","grammatical >> ?","condition 1 >> condition 3",7617,749780,55
254,"f08_1_2","f08",1,2,"control","related","SUBJ OBJfix",1,"above","SUBJ OBJfix >> *OBJfix SUBJ","condition 1 >> condition 2",6841,771826,57
254,"f39_1_2","f39",1,2,"filler","pseudo_manner/INSTR","grammatical",1,"below","* >> grammatical","condition 2 >> condition 1",11431,783258,58
254,"f18_1_2","f18",1,2,"control","unrelated","grammatical",1,"above","grammatical >> *","condition 1 >> condition 2",20228,803486,59
254,"f34_1_3","f34",1,3,"filler","unrelated (pseudo_TEMP/CC)","grammatical",1,"below","? >> grammatical","condition 3 >> condition 1",10823,842114,61
254,"f15_1_2","f15",1,2,"control","unrelated","SUBJ OBJ",1,"above","SUBJ OBJ >> *OBJ SUBJ","condition 1 >> condition 2",20193,862308,62
254,"f21_1_3","f21",1,3,"filler","pseudo_windef","grammatical",1,"below","? >> grammatical","condition 3 >> condition 1",7912,870222,63
254,"f12_1_2","f12",1,2,"control","unrelated","SUBJ OBJ",1,"above","SUBJ OBJ >> *OBJ SUBJ","condition 1 >> condition 2",9515,888542,65
254,"f47_1_3","f47",1,3,"filler","unrelated","grammatical",1,"below","? >> grammatical","condition 3 >> condition 1",7195,909328,67
254,"f06_1_2","f06",1,2,"control","related","SUBJ OBJfix",1,"below","*OBJfix SUBJ >> SUBJ OBJfix","condition 2 >> condition 1",10113,919442,68
254,"f32_1_2","f32",1,2,"filler","unrelated (pseudo_TEMP)","grammatical",1,"above","grammatical >> *","condition 1 >> condition 2",7685,935566,70
254,"f44_1_3","f44",1,3,"filler","unrelated","grammatical",1,"above","grammatical >> ?","condition 1 >> condition 3",6864,942430,71
247,"f36_1_3","f36",1,3,"calibration","unrelated","grammatical",1,"below","? >> grammatical","condition 3 >> condition 1",5342,5345,0
247,"f23_1_2","f23",1,2,"calibration","pseudo_windef","grammatical",1,"above","grammatical >> *","condition 1 >> condition 2",9959,15308,1
247,"f29_1_2","f29",1,2,"calibration","unrelated","grammatical",1,"above","grammatical >> *","condition 1 >> condition 2",7487,22798,2
247,"f28_1_3","f28",1,3,"calibration","unrelated","grammatical",1,"above","grammatical >> ?","condition 1 >> condition 3",6279,29078,3
247,"f45_1_3","f45",1,3,"calibration","unrelated","?",3,"below","grammatical >> ?","condition 1 >> condition 3",4803,33883,4
247,"f38_1_3","f38",1,3,"calibration","unrelated","grammatical",1,"below","? >> grammatical","condition 3 >> condition 1",6882,40766,5
247,"f37_1_2","f37",1,2,"attention","pseudo_COM/manner","grammatical",1,"above","grammatical >> *","condition 1 >> condition 2",12471,67858,7
247,"f13_1_2","f13",1,2,"control","unrelated","SUBJ OBJ",1,"above","SUBJ OBJ >> *OBJ SUBJ","condition 1 >> condition 2",6182,87581,9
247,"f21_1_3","f21",1,3,"filler","pseudo_windef","grammatical",1,"below","? >> grammatical","condition 3 >> condition 1",6039,106135,11
247,"f05_1_2","f05",1,2,"control","related","*OBJfix SUBJ",2,"below","SUBJ OBJfix >> *OBJfix SUBJ","condition 1 >> condition 2",8350,114487,12
247,"f47_1_3","f47",1,3,"filler","unrelated","grammatical",1,"above","grammatical >> ?","condition 1 >> condition 3",8023,131853,14
247,"f08_1_2","f08",1,2,"control","related","SUBJ OBJfix",1,"above","SUBJ OBJfix >> *OBJfix SUBJ","condition 1 >> condition 2",6241,138095,15
247,"f33_1_3","f33",1,3,"filler","unrelated (pseudo_TEMP)","grammatical",1,"below","? >> grammatical","condition 3 >> condition 1",15322,163217,17
247,"f11_1_2","f11",1,2,"control","unrelated","SUBJ OBJ",1,"above","SUBJ OBJ >> *OBJ SUBJ","condition 1 >> condition 2",8662,179487,19
247,"f43_1_2","f43",1,2,"attention","unrelated (pseudo_manner)","grammatical",1,"below","* >> grammatical","condition 2 >> condition 1",20313,199802,20
247,"f09_1_2","f09",1,2,"control","unrelated","SUBJ OBJ",1,"below","*OBJ SUBJ >> SUBJ OBJ","condition 2 >> condition 1",7793,215923,22
247,"f44_1_3","f44",1,3,"filler","unrelated","grammatical",1,"below","? >> grammatical","condition 3 >> condition 1",5567,221492,23
247,"f07_1_2","f07",1,2,"control","related","SUBJ OBJfix",1,"below","*OBJfix SUBJ >> SUBJ OBJfix","condition 2 >> condition 1",8541,237398,25
247,"f35_1_3","f35",1,3,"filler","unrelated","grammatical",1,"above","grammatical >> ?","condition 1 >> condition 3",9065,246465,26
247,"f20_1_2","f20",1,2,"control","unrelated","grammatical",1,"below","* >> grammatical","condition 2 >> condition 1",5097,251563,27
247,"f32_1_2","f32",1,2,"filler","unrelated (pseudo_TEMP)","grammatical",1,"above","grammatical >> *","condition 1 >> condition 2",7685,267350,29
247,"f06_1_2","f06",1,2,"control","related","SUBJ OBJfix",1,"below","*OBJfix SUBJ >> SUBJ OBJfix","condition 2 >> condition 1",5983,273336,30
247,"f31_1_3","f31",1,3,"filler","unrelated","grammatical",1,"above","grammatical >> ?","condition 1 >> condition 3",6586,279923,31
247,"f02_1_2","f02",1,2,"control","related","SUBJ OBJfix",1,"below","*OBJfix SUBJ >> SUBJ OBJfix","condition 2 >> condition 1",4930,284858,32
247,"f39_1_2","f39",1,2,"filler","pseudo_manner/INSTR","grammatical",1,"below","* >> grammatical","condition 2 >> condition 1",16377,306285,34
247,"f01_1_2","f01",1,2,"control","related","SUBJ OBJfix",1,"below","*OBJfix SUBJ >> SUBJ OBJfix","condition 2 >> condition 1",3322,309609,35
247,"f41_1_3","f41",1,3,"filler","unrelated (pseudo_CC)","grammatical",1,"above","grammatical >> ?","condition 1 >> condition 3",12695,322306,36
247,"f17_1_2","f17",1,2,"control","related","grammatical",1,"below","* >> grammatical","condition 2 >> condition 1",7407,342034,38
247,"f27_1_3","f27",1,3,"filler","pseudo_windef/CC","grammatical",1,"above","grammatical >> ?","condition 1 >> condition 3",7154,349189,39
247,"f12_1_2","f12",1,2,"control","unrelated","SUBJ OBJ",1,"above","SUBJ OBJ >> *OBJ SUBJ","condition 1 >> condition 2",6848,364022,41
247,"f46_1_3","f46",1,3,"filler","unrelated","grammatical",1,"below","? >> grammatical","condition 3 >> condition 1",7052,378642,43
247,"f04_1_2","f04",1,2,"control","related","*OBJfix SUBJ",2,"above","*OBJfix SUBJ >> SUBJ OBJfix","condition 2 >> condition 1",10681,397155,45
247,"f30_1_3","f30",1,3,"filler","pseudo_manner/COM","grammatical",1,"above","grammatical >> ?","condition 1 >> condition 3",7606,412793,47
247,"f10_1_2","f10",1,2,"control","unrelated","SUBJ OBJ",1,"below","*OBJ SUBJ >> SUBJ OBJ","condition 2 >> condition 1",3637,416432,48
247,"f25_1_3","f25",1,3,"filler","pseudo_windef","grammatical",1,"below","? >> grammatical","condition 3 >> condition 1",5244,431717,50
247,"f03_1_2","f03",1,2,"control","related","SUBJ OBJfix",1,"below","*OBJfix SUBJ >> SUBJ OBJfix","condition 2 >> condition 1",4876,445922,52
247,"f40_1_3","f40",1,3,"filler","unrelated (pseudo_TEMP)","grammatical",1,"above","grammatical >> ?","condition 1 >> condition 3",7173,453096,53
247,"f19_1_2","f19",1,2,"control","related","grammatical",1,"above","grammatical >> *","condition 1 >> condition 2",7696,466233,55
247,"f22_1_2","f22",1,2,"attention","pseudo_windef","grammatical",1,"below","* >> grammatical","condition 2 >> condition 1",7451,482195,57
247,"f14_1_2","f14",1,2,"control","unrelated","SUBJ OBJ",1,"below","*OBJ SUBJ >> SUBJ OBJ","condition 2 >> condition 1",9044,501013,59
247,"f26_1_2","f26",1,2,"attention","pseudo_windef/TEMP","grammatical",1,"above","grammatical >> *","condition 1 >> condition 2",12871,523438,61
247,"f16_1_2","f16",1,2,"control","unrelated","SUBJ OBJ",1,"above","SUBJ OBJ >> *OBJ SUBJ","condition 1 >> condition 2",5627,529066,62
247,"f34_1_3","f34",1,3,"filler","unrelated (pseudo_TEMP/CC)","grammatical",1,"above","grammatical >> ?","condition 1 >> condition 3",8405,537473,63
247,"f18_1_2","f18",1,2,"control","unrelated","grammatical",1,"above","grammatical >> *","condition 1 >> condition 2",5796,552135,65
247,"f24_1_2","f24",1,2,"attention","pseudo_windef","grammatical",1,"above","grammatical >> *","condition 1 >> condition 2",6646,558782,66
247,"f15_1_2","f15",1,2,"control","unrelated","SUBJ OBJ",1,"below","*OBJ SUBJ >> SUBJ OBJ","condition 2 >> condition 1",5178,569956,68
247,"f48_1_2","f48",1,2,"attention","unrelated","grammatical",1,"below","* >> grammatical","condition 2 >> condition 1",5997,575956,69
247,"f42_1_3","f42",1,3,"filler","unrelated (pseudo_manner)","grammatical",1,"below","? >> grammatical","condition 3 >> condition 1",7274,590640,71
246,"f36_1_3","f36",1,3,"calibration","unrelated","grammatical",1,"above","grammatical >> ?","condition 1 >> condition 3",10011,10017,0
246,"f45_1_3","f45",1,3,"calibration","unrelated","grammatical",1,"above","grammatical >> ?","condition 1 >> condition 3",20755,30777,1
246,"f28_1_3","f28",1,3,"calibration","unrelated","grammatical",1,"below","? >> grammatical","condition 3 >> condition 1",8484,39264,2
246,"f38_1_3","f38",1,3,"calibration","unrelated","grammatical",1,"below","? >> grammatical","condition 3 >> condition 1",6966,46233,3
246,"f29_1_2","f29",1,2,"calibration","unrelated","grammatical",1,"below","* >> grammatical","condition 2 >> condition 1",4998,51234,4
246,"f23_1_2","f23",1,2,"calibration","pseudo_windef","grammatical",1,"above","grammatical >> *","condition 1 >> condition 2",6848,58084,5
246,"f47_1_3","f47",1,3,"filler","unrelated","grammatical",1,"above","grammatical >> ?","condition 1 >> condition 3",6780,64866,6
246,"f04_1_2","f04",1,2,"control","related","SUBJ OBJfix",1,"above","SUBJ OBJfix >> *OBJfix SUBJ","condition 1 >> condition 2",6828,71697,7
246,"f35_1_3","f35",1,3,"filler","unrelated","grammatical",1,"below","? >> grammatical","condition 3 >> condition 1",10733,92884,9
246,"f13_1_2","f13",1,2,"control","unrelated","SUBJ OBJ",1,"below","*OBJ SUBJ >> SUBJ OBJ","condition 2 >> condition 1",5536,98423,10
246,"f43_1_2","f43",1,2,"attention","unrelated (pseudo_manner)","grammatical",1,"above","grammatical >> *","condition 1 >> condition 2",14734,123082,12
246,"f06_1_2","f06",1,2,"control","related","SUBJ OBJfix",1,"above","SUBJ OBJfix >> *OBJfix SUBJ","condition 1 >> condition 2",8167,131252,13
246,"f39_1_2","f39",1,2,"filler","pseudo_manner/INSTR","grammatical",1,"below","* >> grammatical","condition 2 >> condition 1",6123,154796,15
246,"f17_1_2","f17",1,2,"control","related","grammatical",1,"above","grammatical >> *","condition 1 >> condition 2",10431,174132,17
246,"f44_1_3","f44",1,3,"filler","unrelated","grammatical",1,"above","grammatical >> ?","condition 1 >> condition 3",8510,182645,18
246,"f07_1_2","f07",1,2,"control","related","SUBJ OBJfix",1,"below","*OBJfix SUBJ >> SUBJ OBJfix","condition 2 >> condition 1",7490,197140,20
246,"f37_1_2","f37",1,2,"attention","pseudo_COM/manner","grammatical",1,"below","* >> grammatical","condition 2 >> condition 1",6720,203863,21
246,"f05_1_2","f05",1,2,"control","related","SUBJ OBJfix",1,"above","SUBJ OBJfix >> *OBJfix SUBJ","condition 1 >> condition 2",7187,217469,23
246,"f26_1_2","f26",1,2,"attention","pseudo_windef/TEMP","grammatical",1,"above","grammatical >> *","condition 1 >> condition 2",14022,237618,25
246,"f01_1_2","f01",1,2,"control","related","SUBJ OBJfix",1,"above","SUBJ OBJfix >> *OBJfix SUBJ","condition 1 >> condition 2",6190,252213,27
246,"f48_1_2","f48",1,2,"attention","unrelated","grammatical",1,"below","* >> grammatical","condition 2 >> condition 1",9143,261358,28
246,"f12_1_2","f12",1,2,"control","unrelated","SUBJ OBJ",1,"below","*OBJ SUBJ >> SUBJ OBJ","condition 2 >> condition 1",20007,299811,30
246,"f32_1_2","f32",1,2,"filler","unrelated (pseudo_TEMP)","grammatical",1,"below","* >> grammatical","condition 2 >> condition 1",9850,309664,31
246,"f02_1_2","f02",1,2,"control","related","SUBJ OBJfix",1,"above","SUBJ OBJfix >> *OBJfix SUBJ","condition 1 >> condition 2",7684,331533,33
246,"f31_1_3","f31",1,3,"filler","unrelated","grammatical",1,"below","? >> grammatical","condition 3 >> condition 1",6959,338495,34
246,"f14_1_2","f14",1,2,"control","unrelated","SUBJ OBJ",1,"above","SUBJ OBJ >> *OBJ SUBJ","condition 1 >> condition 2",14068,358541,36
246,"f40_1_3","f40",1,3,"filler","unrelated (pseudo_TEMP)","grammatical",1,"above","grammatical >> ?","condition 1 >> condition 3",9074,379510,38
246,"f18_1_2","f18",1,2,"control","unrelated","grammatical",1,"above","grammatical >> *","condition 1 >> condition 2",7038,386549,39
246,"f46_1_3","f46",1,3,"filler","unrelated","grammatical",1,"below","? >> grammatical","condition 3 >> condition 1",7398,402189,41
246,"f15_1_2","f15",1,2,"control","unrelated","SUBJ OBJ",1,"below","*OBJ SUBJ >> SUBJ OBJ","condition 2 >> condition 1",6566,415599,43
246,"f42_1_3","f42",1,3,"filler","unrelated (pseudo_manner)","?",3,"below","grammatical >> ?","condition 1 >> condition 3",10996,426597,44
246,"f11_1_2","f11",1,2,"control","unrelated","SUBJ OBJ",1,"below","*OBJ SUBJ >> SUBJ OBJ","condition 2 >> condition 1",4953,438932,46
246,"f21_1_3","f21",1,3,"filler","pseudo_windef","grammatical",1,"below","? >> grammatical","condition 3 >> condition 1",8466,447401,47
246,"f16_1_2","f16",1,2,"control","unrelated","SUBJ OBJ",1,"below","*OBJ SUBJ >> SUBJ OBJ","condition 2 >> condition 1",6888,461226,49
246,"f27_1_3","f27",1,3,"filler","pseudo_windef/CC","grammatical",1,"below","? >> grammatical","condition 3 >> condition 1",6251,473872,51
246,"f10_1_2","f10",1,2,"control","unrelated","SUBJ OBJ",1,"above","SUBJ OBJ >> *OBJ SUBJ","condition 1 >> condition 2",5778,479653,52
246,"f25_1_3","f25",1,3,"filler","pseudo_windef","grammatical",1,"below","? >> grammatical","condition 3 >> condition 1",7830,494154,54
246,"f20_1_2","f20",1,2,"control","unrelated","grammatical",1,"below","* >> grammatical","condition 2 >> condition 1",6718,500875,55
246,"f34_1_3","f34",1,3,"filler","unrelated (pseudo_TEMP/CC)","grammatical",1,"below","? >> grammatical","condition 3 >> condition 1",10435,517486,57
246,"f09_1_2","f09",1,2,"control","unrelated","SUBJ OBJ",1,"above","SUBJ OBJ >> *OBJ SUBJ","condition 1 >> condition 2",7610,535802,59
246,"f33_1_3","f33",1,3,"filler","unrelated (pseudo_TEMP)","grammatical",1,"above","grammatical >> ?","condition 1 >> condition 3",7847,553610,61
246,"f08_1_2","f08",1,2,"control","related","SUBJ OBJfix",1,"above","SUBJ OBJfix >> *OBJfix SUBJ","condition 1 >> condition 2",10244,571668,63
246,"f22_1_2","f22",1,2,"attention","pseudo_windef","grammatical",1,"below","* >> grammatical","condition 2 >> condition 1",6084,587366,65
246,"f03_1_2","f03",1,2,"control","related","SUBJ OBJfix",1,"above","SUBJ OBJfix >> *OBJfix SUBJ","condition 1 >> condition 2",7381,594750,66
246,"f30_1_3","f30",1,3,"filler","pseudo_manner/COM","grammatical",1,"below","? >> grammatical","condition 3 >> condition 1",9077,603831,67
246,"f19_1_2","f19",1,2,"control","related","grammatical",1,"below","* >> grammatical","condition 2 >> condition 1",7573,621469,69
246,"f24_1_2","f24",1,2,"attention","pseudo_windef","grammatical",1,"below","* >> grammatical","condition 2 >> condition 1",9382,630853,70
246,"f41_1_3","f41",1,3,"filler","unrelated (pseudo_CC)","grammatical",1,"below","? >> grammatical","condition 3 >> condition 1",8117,638972,71
244,"f45_1_3","f45",1,3,"calibration","unrelated","grammatical",1,"below","? >> grammatical","condition 3 >> condition 1",9036,9041,0
244,"f38_1_3","f38",1,3,"calibration","unrelated","grammatical",1,"above","grammatical >> ?","condition 1 >> condition 3",7737,16783,1
244,"f28_1_3","f28",1,3,"calibration","unrelated","grammatical",1,"above","grammatical >> ?","condition 1 >> condition 3",6545,23333,2
244,"f29_1_2","f29",1,2,"calibration","unrelated","grammatical",1,"below","* >> grammatical","condition 2 >> condition 1",8781,32117,3
244,"f23_1_2","f23",1,2,"calibration","pseudo_windef","grammatical",1,"above","grammatical >> *","condition 1 >> condition 2",7894,40013,4
244,"f36_1_3","f36",1,3,"calibration","unrelated","grammatical",1,"below","? >> grammatical","condition 3 >> condition 1",4797,44812,5
244,"f34_1_3","f34",1,3,"filler","unrelated (pseudo_TEMP/CC)","grammatical",1,"below","? >> grammatical","condition 3 >> condition 1",13485,72856,7
244,"f08_1_2","f08",1,2,"control","related","SUBJ OBJfix",1,"above","SUBJ OBJfix >> *OBJfix SUBJ","condition 1 >> condition 2",5596,78456,8
244,"f44_1_3","f44",1,3,"filler","unrelated","grammatical",1,"below","? >> grammatical","condition 3 >> condition 1",6455,108498,10
244,"f04_1_2","f04",1,2,"control","related","SUBJ OBJfix",1,"above","SUBJ OBJfix >> *OBJfix SUBJ","condition 1 >> condition 2",6292,128467,12
244,"f42_1_3","f42",1,3,"filler","unrelated (pseudo_manner)","?",3,"above","? >> grammatical","condition 3 >> condition 1",13661,142132,13
244,"f03_1_2","f03",1,2,"control","related","SUBJ OBJfix",1,"above","SUBJ OBJfix >> *OBJfix SUBJ","condition 1 >> condition 2",6181,155603,15
244,"f27_1_3","f27",1,3,"filler","pseudo_windef/CC","grammatical",1,"above","grammatical >> ?","condition 1 >> condition 3",8104,170258,17
244,"f14_1_2","f14",1,2,"control","unrelated","SUBJ OBJ",1,"above","SUBJ OBJ >> *OBJ SUBJ","condition 1 >> condition 2",5208,185614,19
244,"f24_1_2","f24",1,2,"attention","pseudo_windef","grammatical",1,"above","grammatical >> *","condition 1 >> condition 2",20954,206571,20
244,"f09_1_2","f09",1,2,"control","unrelated","SUBJ OBJ",1,"above","SUBJ OBJ >> *OBJ SUBJ","condition 1 >> condition 2",7641,214215,21
244,"f41_1_3","f41",1,3,"filler","unrelated (pseudo_CC)","grammatical",1,"above","grammatical >> ?","condition 1 >> condition 3",7394,229572,23
244,"f18_1_2","f18",1,2,"control","unrelated","grammatical",1,"above","grammatical >> *","condition 1 >> condition 2",17939,252876,25
244,"f37_1_2","f37",1,2,"attention","pseudo_COM/manner","grammatical",1,"below","* >> grammatical","condition 2 >> condition 1",13834,274656,27
244,"f12_1_2","f12",1,2,"control","unrelated","SUBJ OBJ",1,"below","*OBJ SUBJ >> SUBJ OBJ","condition 2 >> condition 1",17174,300692,29
244,"f25_1_3","f25",1,3,"filler","pseudo_windef","grammatical",1,"below","? >> grammatical","condition 3 >> condition 1",5780,313715,31
244,"f15_1_2","f15",1,2,"control","unrelated","SUBJ OBJ",1,"below","*OBJ SUBJ >> SUBJ OBJ","condition 2 >> condition 1",4859,318577,32
244,"f26_1_2","f26",1,2,"attention","pseudo_windef/TEMP","grammatical",1,"below","* >> grammatical","condition 2 >> condition 1",15295,333875,33
244,"f11_1_2","f11",1,2,"control","unrelated","SUBJ OBJ",1,"above","SUBJ OBJ >> *OBJ SUBJ","condition 1 >> condition 2",9788,351332,35
244,"f48_1_2","f48",1,2,"attention","unrelated","grammatical",1,"below","* >> grammatical","condition 2 >> condition 1",8641,359975,36
244,"f06_1_2","f06",1,2,"control","related","SUBJ OBJfix",1,"below","*OBJfix SUBJ >> SUBJ OBJfix","condition 2 >> condition 1",8232,368210,37
244,"f47_1_3","f47",1,3,"filler","unrelated","grammatical",1,"below","? >> grammatical","condition 3 >> condition 1",7831,376046,38
244,"f13_1_2","f13",1,2,"control","unrelated","SUBJ OBJ",1,"below","*OBJ SUBJ >> SUBJ OBJ","condition 2 >> condition 1",3408,379456,39
244,"f39_1_2","f39",1,2,"filler","pseudo_manner/INSTR","grammatical",1,"below","* >> grammatical","condition 2 >> condition 1",8083,387543,40
244,"f16_1_2","f16",1,2,"control","unrelated","SUBJ OBJ",1,"above","SUBJ OBJ >> *OBJ SUBJ","condition 1 >> condition 2",5245,392790,41
244,"f40_1_3","f40",1,3,"filler","unrelated (pseudo_TEMP)","grammatical",1,"below","? >> grammatical","condition 3 >> condition 1",5133,407664,43
244,"f10_1_2","f10",1,2,"control","unrelated","SUBJ OBJ",1,"above","SUBJ OBJ >> *OBJ SUBJ","condition 1 >> condition 2",6592,423593,45
244,"f33_1_3","f33",1,3,"filler","unrelated (pseudo_TEMP)","grammatical",1,"below","? >> grammatical","condition 3 >> condition 1",8059,431655,46
244,"f01_1_2","f01",1,2,"control","related","SUBJ OBJfix",1,"below","*OBJfix SUBJ >> SUBJ OBJfix","condition 2 >> condition 1",4980,445446,48
244,"f31_1_3","f31",1,3,"filler","unrelated","grammatical",1,"below","? >> grammatical","condition 3 >> condition 1",4600,450048,49
244,"f05_1_2","f05",1,2,"control","related","SUBJ OBJfix",1,"below","*OBJfix SUBJ >> SUBJ OBJfix","condition 2 >> condition 1",8168,467857,51
244,"f30_1_3","f30",1,3,"filler","pseudo_manner/COM","grammatical",1,"below","? >> grammatical","condition 3 >> condition 1",10594,485085,53
244,"f19_1_2","f19",1,2,"control","related","grammatical",1,"above","grammatical >> *","condition 1 >> condition 2",7096,492183,54
244,"f35_1_3","f35",1,3,"filler","unrelated","grammatical",1,"below","? >> grammatical","condition 3 >> condition 1",4512,502161,56
244,"f02_1_2","f02",1,2,"control","related","SUBJ OBJfix",1,"above","SUBJ OBJfix >> *OBJfix SUBJ","condition 1 >> condition 2",6450,521528,58
244,"f21_1_3","f21",1,3,"filler","pseudo_windef","grammatical",1,"above","grammatical >> ?","condition 1 >> condition 3",8258,534198,60
244,"f07_1_2","f07",1,2,"control","related","SUBJ OBJfix",1,"above","SUBJ OBJfix >> *OBJfix SUBJ","condition 1 >> condition 2",6594,540794,61
244,"f22_1_2","f22",1,2,"attention","pseudo_windef","grammatical",1,"above","grammatical >> *","condition 1 >> condition 2",9203,557393,63
244,"f20_1_2","f20",1,2,"control","unrelated","grammatical",1,"above","grammatical >> *","condition 1 >> condition 2",8003,565397,64
244,"f32_1_2","f32",1,2,"filler","unrelated (pseudo_TEMP)","grammatical",1,"below","* >> grammatical","condition 2 >> condition 1",8884,584538,66
244,"f17_1_2","f17",1,2,"control","related","grammatical",1,"below","* >> grammatical","condition 2 >> condition 1",7091,601523,68
244,"f43_1_2","f43",1,2,"attention","unrelated (pseudo_manner)","grammatical",1,"above","grammatical >> *","condition 1 >> condition 2",49470,650994,69
244,"f46_1_3","f46",1,3,"filler","unrelated","grammatical",1,"below","? >> grammatical","condition 3 >> condition 1",5619,663538,71
243,"f28_1_3","f28",1,3,"calibration","unrelated","grammatical",1,"above","grammatical >> ?","condition 1 >> condition 3",8297,8301,0
243,"f38_1_3","f38",1,3,"calibration","unrelated","grammatical",1,"above","grammatical >> ?","condition 1 >> condition 3",8385,16689,1
243,"f29_1_2","f29",1,2,"calibration","unrelated","grammatical",1,"above","grammatical >> *","condition 1 >> condition 2",7957,24649,2
243,"f36_1_3","f36",1,3,"calibration","unrelated","grammatical",1,"below","? >> grammatical","condition 3 >> condition 1",7216,31868,3
243,"f45_1_3","f45",1,3,"calibration","unrelated","grammatical",1,"below","? >> grammatical","condition 3 >> condition 1",8989,40858,4
243,"f23_1_2","f23",1,2,"calibration","pseudo_windef","grammatical",1,"above","grammatical >> *","condition 1 >> condition 2",10455,51314,5
243,"f42_1_3","f42",1,3,"filler","unrelated (pseudo_manner)","grammatical",1,"below","? >> grammatical","condition 3 >> condition 1",13198,64515,6
243,"f08_1_2","f08",1,2,"control","related","SUBJ OBJfix",1,"below","*OBJfix SUBJ >> SUBJ OBJfix","condition 2 >> condition 1",9436,85779,8
243,"f35_1_3","f35",1,3,"filler","unrelated","grammatical",1,"above","grammatical >> ?","condition 1 >> condition 3",9565,104737,10
243,"f20_1_2","f20",1,2,"control","unrelated","grammatical",1,"above","grammatical >> *","condition 1 >> condition 2",7502,112242,11
243,"f41_1_3","f41",1,3,"filler","unrelated (pseudo_CC)","grammatical",1,"below","? >> grammatical","condition 3 >> condition 1",9058,144262,13
243,"f04_1_2","f04",1,2,"control","related","SUBJ OBJfix",1,"above","SUBJ OBJfix >> *OBJfix SUBJ","condition 1 >> condition 2",7117,151380,14
243,"f25_1_3","f25",1,3,"filler","pseudo_windef","grammatical",1,"above","grammatical >> ?","condition 1 >> condition 3",6492,157873,15
243,"f15_1_2","f15",1,2,"control","unrelated","SUBJ OBJ",1,"below","*OBJ SUBJ >> SUBJ OBJ","condition 2 >> condition 1",7990,179953,17
243,"f32_1_2","f32",1,2,"filler","unrelated (pseudo_TEMP)","grammatical",1,"below","* >> grammatical","condition 2 >> condition 1",6750,196093,19
243,"f14_1_2","f14",1,2,"control","unrelated","SUBJ OBJ",1,"below","*OBJ SUBJ >> SUBJ OBJ","condition 2 >> condition 1",5971,228503,21
243,"f31_1_3","f31",1,3,"filler","unrelated","grammatical",1,"above","grammatical >> ?","condition 1 >> condition 3",12139,251133,23
243,"f10_1_2","f10",1,2,"control","unrelated","SUBJ OBJ",1,"below","*OBJ SUBJ >> SUBJ OBJ","condition 2 >> condition 1",5888,257021,24
243,"f26_1_2","f26",1,2,"attention","pseudo_windef/TEMP","grammatical",1,"below","* >> grammatical","condition 2 >> condition 1",10830,281365,26
243,"f03_1_2","f03",1,2,"control","related","SUBJ OBJfix",1,"below","*OBJfix SUBJ >> SUBJ OBJfix","condition 2 >> condition 1",9908,291276,27
243,"f48_1_2","f48",1,2,"attention","unrelated","grammatical",1,"below","* >> grammatical","condition 2 >> condition 1",12205,318175,29
243,"f07_1_2","f07",1,2,"control","related","SUBJ OBJfix",1,"above","SUBJ OBJfix >> *OBJfix SUBJ","condition 1 >> condition 2",6287,340177,31
243,"f44_1_3","f44",1,3,"filler","unrelated","grammatical",1,"above","grammatical >> ?","condition 1 >> condition 3",7454,347631,32
243,"f02_1_2","f02",1,2,"control","related","SUBJ OBJfix",1,"below","*OBJfix SUBJ >> SUBJ OBJfix","condition 2 >> condition 1",5540,361922,34
243,"f22_1_2","f22",1,2,"attention","pseudo_windef","grammatical",1,"above","grammatical >> *","condition 1 >> condition 2",9122,371046,35
243,"f09_1_2","f09",1,2,"control","unrelated","SUBJ OBJ",1,"below","*OBJ SUBJ >> SUBJ OBJ","condition 2 >> condition 1",6925,393501,37
243,"f46_1_3","f46",1,3,"filler","unrelated","grammatical",1,"below","? >> grammatical","condition 3 >> condition 1",8153,409455,39
243,"f16_1_2","f16",1,2,"control","unrelated","SUBJ OBJ",1,"below","*OBJ SUBJ >> SUBJ OBJ","condition 2 >> condition 1",8805,427639,41
243,"f34_1_3","f34",1,3,"filler","unrelated (pseudo_TEMP/CC)","grammatical",1,"below","? >> grammatical","condition 3 >> condition 1",25087,452728,42
243,"f17_1_2","f17",1,2,"control","related","grammatical",1,"above","grammatical >> *","condition 1 >> condition 2",6106,458837,43
243,"f37_1_2","f37",1,2,"attention","pseudo_COM/manner","grammatical",1,"below","* >> grammatical","condition 2 >> condition 1",15645,474483,44
243,"f13_1_2","f13",1,2,"control","unrelated","SUBJ OBJ",1,"below","*OBJ SUBJ >> SUBJ OBJ","condition 2 >> condition 1",5554,480039,45
243,"f30_1_3","f30",1,3,"filler","pseudo_manner/COM","grammatical",1,"above","grammatical >> ?","condition 1 >> condition 3",9767,499457,47
243,"f05_1_2","f05",1,2,"control","related","SUBJ OBJfix",1,"below","*OBJfix SUBJ >> SUBJ OBJfix","condition 2 >> condition 1",6849,513863,49
243,"f21_1_3","f21",1,3,"filler","pseudo_windef","grammatical",1,"below","? >> grammatical","condition 3 >> condition 1",8490,522354,50
243,"f06_1_2","f06",1,2,"control","related","SUBJ OBJfix",1,"below","*OBJfix SUBJ >> SUBJ OBJfix","condition 2 >> condition 1",6699,536243,52
243,"f27_1_3","f27",1,3,"filler","pseudo_windef/CC","grammatical",1,"above","grammatical >> ?","condition 1 >> condition 3",12101,562115,54
243,"f19_1_2","f19",1,2,"control","related","grammatical",1,"above","grammatical >> *","condition 1 >> condition 2",10197,572313,55
243,"f40_1_3","f40",1,3,"filler","unrelated (pseudo_TEMP)","grammatical",1,"below","? >> grammatical","condition 3 >> condition 1",7552,596107,57
243,"f11_1_2","f11",1,2,"control","unrelated","SUBJ OBJ",1,"below","*OBJ SUBJ >> SUBJ OBJ","condition 2 >> condition 1",6091,611989,59
243,"f43_1_2","f43",1,2,"attention","unrelated (pseudo_manner)","grammatical",1,"above","grammatical >> *","condition 1 >> condition 2",29792,641782,60
243,"f01_1_2","f01",1,2,"control","related","SUBJ OBJfix",1,"above","SUBJ OBJfix >> *OBJfix SUBJ","condition 1 >> condition 2",7821,667931,62
243,"f33_1_3","f33",1,3,"filler","unrelated (pseudo_TEMP)","grammatical",1,"below","? >> grammatical","condition 3 >> condition 1",5914,673846,63
243,"f18_1_2","f18",1,2,"control","unrelated","grammatical",1,"above","grammatical >> *","condition 1 >> condition 2",8321,694371,65
243,"f47_1_3","f47",1,3,"filler","unrelated","grammatical",1,"below","? >> grammatical","condition 3 >> condition 1",5666,700037,66
243,"f12_1_2","f12",1,2,"control","unrelated","SUBJ OBJ",1,"above","SUBJ OBJ >> *OBJ SUBJ","condition 1 >> condition 2",8212,718556,68
243,"f39_1_2","f39",1,2,"filler","pseudo_manner/INSTR","grammatical",1,"below","* >> grammatical","condition 2 >> condition 1",33182,760090,70
243,"f24_1_2","f24",1,2,"attention","pseudo_windef","grammatical",1,"below","* >> grammatical","condition 2 >> condition 1",7185,767276,71
241,"f38_1_3","f38",1,3,"calibration","unrelated","grammatical",1,"above","grammatical >> ?","condition 1 >> condition 3",11233,11235,0
241,"f23_1_2","f23",1,2,"calibration","pseudo_windef","grammatical",1,"below","* >> grammatical","condition 2 >> condition 1",11672,22909,1
241,"f36_1_3","f36",1,3,"calibration","unrelated","grammatical",1,"above","grammatical >> ?","condition 1 >> condition 3",10583,33493,2
241,"f28_1_3","f28",1,3,"calibration","unrelated","grammatical",1,"above","grammatical >> ?","condition 1 >> condition 3",6649,40143,3
241,"f45_1_3","f45",1,3,"calibration","unrelated","grammatical",1,"above","grammatical >> ?","condition 1 >> condition 3",7882,48027,4
241,"f29_1_2","f29",1,2,"calibration","unrelated","grammatical",1,"above","grammatical >> *","condition 1 >> condition 2",5704,53732,5
241,"f46_1_3","f46",1,3,"filler","unrelated","grammatical",1,"above","grammatical >> ?","condition 1 >> condition 3",8812,62545,6
241,"f09_1_2","f09",1,2,"control","unrelated","SUBJ OBJ",1,"below","*OBJ SUBJ >> SUBJ OBJ","condition 2 >> condition 1",4866,86352,8
241,"f24_1_2","f24",1,2,"attention","pseudo_windef","grammatical",1,"above","grammatical >> *","condition 1 >> condition 2",4561,90913,9
241,"f04_1_2","f04",1,2,"control","related","SUBJ OBJfix",1,"below","*OBJfix SUBJ >> SUBJ OBJfix","condition 2 >> condition 1",10616,127731,11
241,"f32_1_2","f32",1,2,"filler","unrelated (pseudo_TEMP)","grammatical",1,"below","* >> grammatical","condition 2 >> condition 1",4214,138547,13
241,"f15_1_2","f15",1,2,"control","unrelated","SUBJ OBJ",1,"above","SUBJ OBJ >> *OBJ SUBJ","condition 1 >> condition 2",5858,144406,14
241,"f44_1_3","f44",1,3,"filler","unrelated","grammatical",1,"above","grammatical >> ?","condition 1 >> condition 3",5376,163844,16
241,"f02_1_2","f02",1,2,"control","related","SUBJ OBJfix",1,"above","SUBJ OBJfix >> *OBJfix SUBJ","condition 1 >> condition 2",6003,179172,18
241,"f21_1_3","f21",1,3,"filler","pseudo_windef","grammatical",1,"below","? >> grammatical","condition 3 >> condition 1",8086,187260,19
241,"f19_1_2","f19",1,2,"control","related","grammatical",1,"below","* >> grammatical","condition 2 >> condition 1",8610,202703,21
241,"f41_1_3","f41",1,3,"filler","unrelated (pseudo_CC)","grammatical",1,"below","? >> grammatical","condition 3 >> condition 1",8921,211625,22
241,"f01_1_2","f01",1,2,"control","related","SUBJ OBJfix",1,"below","*OBJfix SUBJ >> SUBJ OBJfix","condition 2 >> condition 1",4180,229450,24
241,"f42_1_3","f42",1,3,"filler","unrelated (pseudo_manner)","?",3,"below","grammatical >> ?","condition 1 >> condition 3",12588,242040,25
241,"f17_1_2","f17",1,2,"control","related","grammatical",1,"below","* >> grammatical","condition 2 >> condition 1",3145,252355,27
241,"f37_1_2","f37",1,2,"attention","pseudo_COM/manner","grammatical",1,"below","* >> grammatical","condition 2 >> condition 1",12644,271801,29
241,"f14_1_2","f14",1,2,"control","unrelated","SUBJ OBJ",1,"below","*OBJ SUBJ >> SUBJ OBJ","condition 2 >> condition 1",3994,275797,30
241,"f34_1_3","f34",1,3,"filler","unrelated (pseudo_TEMP/CC)","grammatical",1,"above","grammatical >> ?","condition 1 >> condition 3",7104,290438,32
241,"f07_1_2","f07",1,2,"control","related","SUBJ OBJfix",1,"above","SUBJ OBJfix >> *OBJfix SUBJ","condition 1 >> condition 2",6254,296694,33
241,"f26_1_2","f26",1,2,"attention","pseudo_windef/TEMP","grammatical",1,"above","grammatical >> *","condition 1 >> condition 2",13965,316645,35
241,"f06_1_2","f06",1,2,"control","related","SUBJ OBJfix",1,"below","*OBJfix SUBJ >> SUBJ OBJfix","condition 2 >> condition 1",8820,325467,36
241,"f47_1_3","f47",1,3,"filler","unrelated","grammatical",1,"above","grammatical >> ?","condition 1 >> condition 3",8542,338953,38
241,"f03_1_2","f03",1,2,"control","related","SUBJ OBJfix",1,"below","*OBJfix SUBJ >> SUBJ OBJfix","condition 2 >> condition 1",3792,342746,39
241,"f35_1_3","f35",1,3,"filler","unrelated","grammatical",1,"above","grammatical >> ?","condition 1 >> condition 3",4495,358969,41
241,"f16_1_2","f16",1,2,"control","unrelated","SUBJ OBJ",1,"below","*OBJ SUBJ >> SUBJ OBJ","condition 2 >> condition 1",4049,363020,42
241,"f25_1_3","f25",1,3,"filler","pseudo_windef","?",3,"above","? >> grammatical","condition 3 >> condition 1",8114,371135,43
241,"f18_1_2","f18",1,2,"control","unrelated","grammatical",1,"above","grammatical >> *","condition 1 >> condition 2",4115,386347,45
241,"f22_1_2","f22",1,2,"attention","pseudo_windef","grammatical",1,"below","* >> grammatical","condition 2 >> condition 1",5317,396346,47
241,"f10_1_2","f10",1,2,"control","unrelated","SUBJ OBJ",1,"above","SUBJ OBJ >> *OBJ SUBJ","condition 1 >> condition 2",5195,401542,48
241,"f48_1_2","f48",1,2,"attention","unrelated","grammatical",1,"below","* >> grammatical","condition 2 >> condition 1",7240,417139,50
241,"f08_1_2","f08",1,2,"control","related","SUBJ OBJfix",1,"below","*OBJfix SUBJ >> SUBJ OBJfix","condition 2 >> condition 1",10695,427835,51
241,"f40_1_3","f40",1,3,"filler","unrelated (pseudo_TEMP)","grammatical",1,"above","grammatical >> ?","condition 1 >> condition 3",5491,439425,53
241,"f11_1_2","f11",1,2,"control","unrelated","SUBJ OBJ",1,"below","*OBJ SUBJ >> SUBJ OBJ","condition 2 >> condition 1",4010,452500,55
241,"f33_1_3","f33",1,3,"filler","unrelated (pseudo_TEMP)","grammatical",1,"above","grammatical >> ?","condition 1 >> condition 3",5050,463515,57
241,"f13_1_2","f13",1,2,"control","unrelated","SUBJ OBJ",1,"above","SUBJ OBJ >> *OBJ SUBJ","condition 1 >> condition 2",5058,473350,59
241,"f43_1_2","f43",1,2,"attention","unrelated (pseudo_manner)","grammatical",1,"below","* >> grammatical","condition 2 >> condition 1",7090,480441,60
241,"f20_1_2","f20",1,2,"control","unrelated","grammatical",1,"above","grammatical >> *","condition 1 >> condition 2",6412,491962,62
241,"f39_1_2","f39",1,2,"filler","pseudo_manner/INSTR","grammatical",1,"above","grammatical >> *","condition 1 >> condition 2",6428,498391,63
241,"f12_1_2","f12",1,2,"control","unrelated","SUBJ OBJ",1,"above","SUBJ OBJ >> *OBJ SUBJ","condition 1 >> condition 2",5568,510227,65
241,"f27_1_3","f27",1,3,"filler","pseudo_windef/CC","grammatical",1,"below","? >> grammatical","condition 3 >> condition 1",5556,525979,67
241,"f05_1_2","f05",1,2,"control","related","SUBJ OBJfix",1,"below","*OBJfix SUBJ >> SUBJ OBJfix","condition 2 >> condition 1",6155,532135,68
241,"f30_1_3","f30",1,3,"filler","pseudo_manner/COM","grammatical",1,"above","grammatical >> ?","condition 1 >> condition 3",9689,551733,70
241,"f31_1_3","f31",1,3,"filler","unrelated","grammatical",1,"below","? >> grammatical","condition 3 >> condition 1",20359,572094,71
240,"f45_1_3","f45",1,3,"calibration","unrelated","grammatical",1,"below","? >> grammatical","condition 3 >> condition 1",12797,12799,0
240,"f36_1_3","f36",1,3,"calibration","unrelated","grammatical",1,"above","grammatical >> ?","condition 1 >> condition 3",11325,24128,1
240,"f38_1_3","f38",1,3,"calibration","unrelated","grammatical",1,"below","? >> grammatical","condition 3 >> condition 1",7278,31408,2
240,"f29_1_2","f29",1,2,"calibration","unrelated","grammatical",1,"above","grammatical >> *","condition 1 >> condition 2",9455,40864,3
240,"f28_1_3","f28",1,3,"calibration","unrelated","grammatical",1,"below","? >> grammatical","condition 3 >> condition 1",7195,48060,4
240,"f23_1_2","f23",1,2,"calibration","pseudo_windef","grammatical",1,"below","* >> grammatical","condition 2 >> condition 1",5562,53624,5
240,"f48_1_2","f48",1,2,"attention","unrelated","grammatical",1,"below","* >> grammatical","condition 2 >> condition 1",11990,65616,6
240,"f01_1_2","f01",1,2,"control","related","SUBJ OBJfix",1,"below","*OBJfix SUBJ >> SUBJ OBJfix","condition 2 >> condition 1",5726,84959,8
240,"f41_1_3","f41",1,3,"filler","unrelated (pseudo_CC)","grammatical",1,"below","? >> grammatical","condition 3 >> condition 1",11622,96584,9
240,"f08_1_2","f08",1,2,"control","related","SUBJ OBJfix",1,"above","SUBJ OBJfix >> *OBJfix SUBJ","condition 1 >> condition 2",8662,130151,11
240,"f22_1_2","f22",1,2,"attention","pseudo_windef","grammatical",1,"below","* >> grammatical","condition 2 >> condition 1",13821,143975,12
240,"f06_1_2","f06",1,2,"control","related","SUBJ OBJfix",1,"below","*OBJfix SUBJ >> SUBJ OBJfix","condition 2 >> condition 1",7392,160223,14
240,"f24_1_2","f24",1,2,"attention","pseudo_windef","grammatical",1,"below","* >> grammatical","condition 2 >> condition 1",5302,177935,16
240,"f17_1_2","f17",1,2,"control","related","grammatical",1,"above","grammatical >> *","condition 1 >> condition 2",7967,193336,18
240,"f46_1_3","f46",1,3,"filler","unrelated","grammatical",1,"below","? >> grammatical","condition 3 >> condition 1",7087,214560,20
240,"f16_1_2","f16",1,2,"control","unrelated","SUBJ OBJ",1,"below","*OBJ SUBJ >> SUBJ OBJ","condition 2 >> condition 1",3654,228304,22
240,"f32_1_2","f32",1,2,"filler","unrelated (pseudo_TEMP)","grammatical",1,"above","grammatical >> *","condition 1 >> condition 2",10853,239159,23
240,"f19_1_2","f19",1,2,"control","related","grammatical",1,"below","* >> grammatical","condition 2 >> condition 1",7567,246727,24
240,"f30_1_3","f30",1,3,"filler","pseudo_manner/COM","grammatical",1,"below","? >> grammatical","condition 3 >> condition 1",18174,271583,26
240,"f14_1_2","f14",1,2,"control","unrelated","SUBJ OBJ",1,"below","*OBJ SUBJ >> SUBJ OBJ","condition 2 >> condition 1",3486,283046,28
240,"f33_1_3","f33",1,3,"filler","unrelated (pseudo_TEMP)","grammatical",1,"above","grammatical >> ?","condition 1 >> condition 3",6247,289295,29
240,"f15_1_2","f15",1,2,"control","unrelated","SUBJ OBJ",1,"below","*OBJ SUBJ >> SUBJ OBJ","condition 2 >> condition 1",4599,293895,30
240,"f43_1_2","f43",1,2,"attention","unrelated (pseudo_manner)","grammatical",1,"below","* >> grammatical","condition 2 >> condition 1",7341,309535,32
240,"f18_1_2","f18",1,2,"control","unrelated","*",2,"below","grammatical >> *","condition 1 >> condition 2",5286,314822,33
240,"f26_1_2","f26",1,2,"attention","pseudo_windef/TEMP","grammatical",1,"above","grammatical >> *","condition 1 >> condition 2",11671,326494,34
240,"f12_1_2","f12",1,2,"control","unrelated","SUBJ OBJ",1,"above","SUBJ OBJ >> *OBJ SUBJ","condition 1 >> condition 2",7224,333719,35
240,"f37_1_2","f37",1,2,"attention","pseudo_COM/manner","grammatical",1,"above","grammatical >> *","condition 1 >> condition 2",12206,353847,37
240,"f03_1_2","f03",1,2,"control","related","SUBJ OBJfix",1,"above","SUBJ OBJfix >> *OBJfix SUBJ","condition 1 >> condition 2",8255,362104,38
240,"f35_1_3","f35",1,3,"filler","unrelated","grammatical",1,"above","grammatical >> ?","condition 1 >> condition 3",8166,381943,40
240,"f05_1_2","f05",1,2,"control","related","SUBJ OBJfix",1,"below","*OBJfix SUBJ >> SUBJ OBJfix","condition 2 >> condition 1",4422,398575,42
240,"f47_1_3","f47",1,3,"filler","unrelated","grammatical",1,"below","? >> grammatical","condition 3 >> condition 1",6223,418399,44
240,"f07_1_2","f07",1,2,"control","related","SUBJ OBJfix",1,"above","SUBJ OBJfix >> *OBJfix SUBJ","condition 1 >> condition 2",6710,425111,45
240,"f31_1_3","f31",1,3,"filler","unrelated","grammatical",1,"above","grammatical >> ?","condition 1 >> condition 3",7886,432998,46
240,"f09_1_2","f09",1,2,"control","unrelated","SUBJ OBJ",1,"above","SUBJ OBJ >> *OBJ SUBJ","condition 1 >> condition 2",6312,446735,48
240,"f25_1_3","f25",1,3,"filler","pseudo_windef","grammatical",1,"below","? >> grammatical","condition 3 >> condition 1",6813,453550,49
240,"f20_1_2","f20",1,2,"control","unrelated","grammatical",1,"above","grammatical >> *","condition 1 >> condition 2",10031,472806,51
240,"f39_1_2","f39",1,2,"filler","pseudo_manner/INSTR","grammatical",1,"above","grammatical >> *","condition 1 >> condition 2",8990,487678,53
240,"f02_1_2","f02",1,2,"control","related","SUBJ OBJfix",1,"above","SUBJ OBJfix >> *OBJfix SUBJ","condition 1 >> condition 2",6232,493911,54
240,"f44_1_3","f44",1,3,"filler","unrelated","grammatical",1,"above","grammatical >> ?","condition 1 >> condition 3",7022,508502,56
240,"f11_1_2","f11",1,2,"control","unrelated","SUBJ OBJ",1,"above","SUBJ OBJ >> *OBJ SUBJ","condition 1 >> condition 2",6798,530566,58
240,"f34_1_3","f34",1,3,"filler","unrelated (pseudo_TEMP/CC)","grammatical",1,"above","grammatical >> ?","condition 1 >> condition 3",10560,550703,60
240,"f13_1_2","f13",1,2,"control","unrelated","SUBJ OBJ",1,"below","*OBJ SUBJ >> SUBJ OBJ","condition 2 >> condition 1",3814,562751,62
240,"f27_1_3","f27",1,3,"filler","pseudo_windef/CC","grammatical",1,"above","grammatical >> ?","condition 1 >> condition 3",7535,576319,64
240,"f10_1_2","f10",1,2,"control","unrelated","SUBJ OBJ",1,"above","SUBJ OBJ >> *OBJ SUBJ","condition 1 >> condition 2",10918,587238,65
240,"f40_1_3","f40",1,3,"filler","unrelated (pseudo_TEMP)","grammatical",1,"below","? >> grammatical","condition 3 >> condition 1",6294,600559,67
240,"f04_1_2","f04",1,2,"control","related","SUBJ OBJfix",1,"above","SUBJ OBJfix >> *OBJfix SUBJ","condition 1 >> condition 2",5758,606318,68
240,"f42_1_3","f42",1,3,"filler","unrelated (pseudo_manner)","?",3,"below","grammatical >> ?","condition 1 >> condition 3",7029,620334,70
240,"f21_1_3","f21",1,3,"filler","pseudo_windef","grammatical",1,"below","? >> grammatical","condition 3 >> condition 1",7326,627663,71
239,"f38_1_3","f38",1,3,"calibration","unrelated","grammatical",1,"above","grammatical >> ?","condition 1 >> condition 3",9256,9258,0
239,"f29_1_2","f29",1,2,"calibration","unrelated","grammatical",1,"below","* >> grammatical","condition 2 >> condition 1",4608,13873,1
239,"f36_1_3","f36",1,3,"calibration","unrelated","grammatical",1,"below","? >> grammatical","condition 3 >> condition 1",5264,19139,2
239,"f28_1_3","f28",1,3,"calibration","unrelated","grammatical",1,"above","grammatical >> ?","condition 1 >> condition 3",6644,25784,3
239,"f45_1_3","f45",1,3,"calibration","unrelated","grammatical",1,"above","grammatical >> ?","condition 1 >> condition 3",11326,37113,4
239,"f23_1_2","f23",1,2,"calibration","pseudo_windef","grammatical",1,"below","* >> grammatical","condition 2 >> condition 1",5474,42589,5
239,"f42_1_3","f42",1,3,"filler","unrelated (pseudo_manner)","grammatical",1,"below","? >> grammatical","condition 3 >> condition 1",9397,51988,6
239,"f12_1_2","f12",1,2,"control","unrelated","SUBJ OBJ",1,"above","SUBJ OBJ >> *OBJ SUBJ","condition 1 >> condition 2",8966,60956,7
239,"f48_1_2","f48",1,2,"attention","unrelated","grammatical",1,"above","grammatical >> *","condition 1 >> condition 2",14939,75897,8
239,"f19_1_2","f19",1,2,"control","related","grammatical",1,"below","* >> grammatical","condition 2 >> condition 1",7294,108625,10
239,"f30_1_3","f30",1,3,"filler","pseudo_manner/COM","grammatical",1,"above","grammatical >> ?","condition 1 >> condition 3",9242,117869,11
239,"f08_1_2","f08",1,2,"control","related","SUBJ OBJfix",1,"below","*OBJfix SUBJ >> SUBJ OBJfix","condition 2 >> condition 1",7284,138414,13
239,"f26_1_2","f26",1,2,"attention","pseudo_windef/TEMP","grammatical",1,"above","grammatical >> *","condition 1 >> condition 2",10322,157858,15
239,"f15_1_2","f15",1,2,"control","unrelated","SUBJ OBJ",1,"below","*OBJ SUBJ >> SUBJ OBJ","condition 2 >> condition 1",4992,162853,16
239,"f37_1_2","f37",1,2,"attention","pseudo_COM/manner","grammatical",1,"above","grammatical >> *","condition 1 >> condition 2",12329,185920,18
239,"f09_1_2","f09",1,2,"control","unrelated","SUBJ OBJ",1,"below","*OBJ SUBJ >> SUBJ OBJ","condition 2 >> condition 1",7935,193859,19
239,"f46_1_3","f46",1,3,"filler","unrelated","grammatical",1,"above","grammatical >> ?","condition 1 >> condition 3",8763,217763,21
239,"f18_1_2","f18",1,2,"control","unrelated","grammatical",1,"below","* >> grammatical","condition 2 >> condition 1",5104,222868,22
239,"f27_1_3","f27",1,3,"filler","pseudo_windef/CC","grammatical",1,"above","grammatical >> ?","condition 1 >> condition 3",5918,239137,24
239,"f17_1_2","f17",1,2,"control","related","grammatical",1,"above","grammatical >> *","condition 1 >> condition 2",7830,246968,25
239,"f41_1_3","f41",1,3,"filler","unrelated (pseudo_CC)","grammatical",1,"above","grammatical >> ?","condition 1 >> condition 3",8695,264648,27
239,"f03_1_2","f03",1,2,"control","related","SUBJ OBJfix",1,"below","*OBJfix SUBJ >> SUBJ OBJfix","condition 2 >> condition 1",7248,271900,28
239,"f39_1_2","f39",1,2,"filler","pseudo_manner/INSTR","grammatical",1,"below","* >> grammatical","condition 2 >> condition 1",4465,282701,30
239,"f05_1_2","f05",1,2,"control","related","SUBJ OBJfix",1,"above","SUBJ OBJfix >> *OBJfix SUBJ","condition 1 >> condition 2",8585,291287,31
239,"f21_1_3","f21",1,3,"filler","pseudo_windef","grammatical",1,"below","? >> grammatical","condition 3 >> condition 1",6278,297569,32
239,"f16_1_2","f16",1,2,"control","unrelated","SUBJ OBJ",1,"below","*OBJ SUBJ >> SUBJ OBJ","condition 2 >> condition 1",3936,308293,34
239,"f31_1_3","f31",1,3,"filler","unrelated","grammatical",1,"below","? >> grammatical","condition 3 >> condition 1",5775,321442,36
239,"f10_1_2","f10",1,2,"control","unrelated","SUBJ OBJ",1,"below","*OBJ SUBJ >> SUBJ OBJ","condition 2 >> condition 1",4828,335660,38
239,"f44_1_3","f44",1,3,"filler","unrelated","grammatical",1,"above","grammatical >> ?","condition 1 >> condition 3",25924,361586,39
239,"f13_1_2","f13",1,2,"control","unrelated","SUBJ OBJ",1,"above","SUBJ OBJ >> *OBJ SUBJ","condition 1 >> condition 2",4074,365664,40
239,"f34_1_3","f34",1,3,"filler","unrelated (pseudo_TEMP/CC)","grammatical",1,"below","? >> grammatical","condition 3 >> condition 1",8311,373978,41
239,"f07_1_2","f07",1,2,"control","related","SUBJ OBJfix",1,"above","SUBJ OBJfix >> *OBJfix SUBJ","condition 1 >> condition 2",5465,385118,43
239,"f22_1_2","f22",1,2,"attention","pseudo_windef","grammatical",1,"below","* >> grammatical","condition 2 >> condition 1",5019,390140,44
239,"f20_1_2","f20",1,2,"control","unrelated","grammatical",1,"below","* >> grammatical","condition 2 >> condition 1",4596,401196,46
239,"f35_1_3","f35",1,3,"filler","unrelated","grammatical",1,"above","grammatical >> ?","condition 1 >> condition 3",9847,416590,48
239,"f02_1_2","f02",1,2,"control","related","SUBJ OBJfix",1,"above","SUBJ OBJfix >> *OBJfix SUBJ","condition 1 >> condition 2",4282,427999,50
239,"f43_1_2","f43",1,2,"attention","unrelated (pseudo_manner)","grammatical",1,"above","grammatical >> *","condition 1 >> condition 2",8952,442155,52
239,"f04_1_2","f04",1,2,"control","related","SUBJ OBJfix",1,"below","*OBJfix SUBJ >> SUBJ OBJfix","condition 2 >> condition 1",4052,446210,53
239,"f33_1_3","f33",1,3,"filler","unrelated (pseudo_TEMP)","grammatical",1,"below","? >> grammatical","condition 3 >> condition 1",6706,457814,55
239,"f01_1_2","f01",1,2,"control","related","SUBJ OBJfix",1,"below","*OBJfix SUBJ >> SUBJ OBJfix","condition 2 >> condition 1",3627,478556,57
239,"f32_1_2","f32",1,2,"filler","unrelated (pseudo_TEMP)","grammatical",1,"below","* >> grammatical","condition 2 >> condition 1",6008,494529,59
239,"f06_1_2","f06",1,2,"control","related","SUBJ OBJfix",1,"below","*OBJfix SUBJ >> SUBJ OBJfix","condition 2 >> condition 1",6077,504415,61
239,"f25_1_3","f25",1,3,"filler","pseudo_windef","grammatical",1,"above","grammatical >> ?","condition 1 >> condition 3",5772,514758,63
239,"f11_1_2","f11",1,2,"control","unrelated","SUBJ OBJ",1,"above","SUBJ OBJ >> *OBJ SUBJ","condition 1 >> condition 2",5296,520056,64
239,"f24_1_2","f24",1,2,"attention","pseudo_windef","grammatical",1,"below","* >> grammatical","condition 2 >> condition 1",5758,530371,66
239,"f14_1_2","f14",1,2,"control","unrelated","SUBJ OBJ",1,"below","*OBJ SUBJ >> SUBJ OBJ","condition 2 >> condition 1",8797,545574,68
239,"f47_1_3","f47",1,3,"filler","unrelated","grammatical",1,"below","? >> grammatical","condition 3 >> condition 1",4536,550114,69
239,"f40_1_3","f40",1,3,"filler","unrelated (pseudo_TEMP)","grammatical",1,"above","grammatical >> ?","condition 1 >> condition 3",8288,566724,71
