"workerId","itemId","ENCODING","OPTION_0_CONDITION_NO","OPTION_1_CONDITION_NO","ADVERBIAL_TYPE","INTEGRATION","ANSWER","ANSWER_CONDITION_NO","ANSWER_POSITION","PRESENTATION_ORDER","PRESENTATION_ORDER_CONDITION","rt","time_elapsed","trial_index","ITEM_FUNCTION"
271,"t01_1_2","t01",1,2,"COM(S)","yes","PP>OBJ",1,"below","OBJ>PP >> PP>OBJ","condition 2 >> condition 1",8802,105967,12,"test"
228,"t01_1_2","t01",1,2,"COM(S)","yes","PP>OBJ",1,"below","OBJ>PP >> PP>OBJ","condition 2 >> condition 1",8806,242429,23,"test"
246,"t01_1_2","t01",1,2,"COM(S)","yes","OBJ>PP",2,"below","PP>OBJ >> OBJ>PP","condition 1 >> condition 2",18443,279802,29,"test"
244,"t01_1_2","t01",1,2,"COM(S)","yes","OBJ>PP",2,"below","PP>OBJ >> OBJ>PP","condition 1 >> condition 2",6547,162151,16,"test"
258,"t01_1_2","t01",1,2,"COM(S)","yes","OBJ>PP",2,"above","OBJ>PP >> PP>OBJ","condition 2 >> condition 1",13909,612489,63,"test"
236,"t01_1_2","t01",1,2,"COM(S)","yes","OBJ>PP",2,"below","PP>OBJ >> OBJ>PP","condition 1 >> condition 2",13126,115682,10,"test"
222,"t01_1_2","t01",1,2,"COM(S)","yes","OBJ>PP",2,"below","PP>OBJ >> OBJ>PP","condition 1 >> condition 2",6685,440903,47,"test"
267,"t01_1_2","t01",1,2,"COM(S)","yes","PP>OBJ",1,"above","PP>OBJ >> OBJ>PP","condition 1 >> condition 2",17585,95037,6,"test"
243,"t01_1_2","t01",1,2,"COM(S)","yes","PP>OBJ",1,"below","OBJ>PP >> PP>OBJ","condition 2 >> condition 1",9377,418833,40,"test"
225,"t01_1_2","t01",1,2,"COM(S)","yes","OBJ>PP",2,"above","OBJ>PP >> PP>OBJ","condition 2 >> condition 1",13505,250757,29,"test"
263,"t01_1_2","t01",1,2,"COM(S)","yes","PP>OBJ",1,"below","OBJ>PP >> PP>OBJ","condition 2 >> condition 1",5373,475842,46,"test"
255,"t01_1_2","t01",1,2,"COM(S)","yes","PP>OBJ",1,"above","PP>OBJ >> OBJ>PP","condition 1 >> condition 2",6186,573481,41,"test"
223,"t01_1_2","t01",1,2,"COM(S)","yes","PP>OBJ",1,"above","PP>OBJ >> OBJ>PP","condition 1 >> condition 2",11328,375636,39,"test"
238,"t01_1_2","t01",1,2,"COM(S)","yes","OBJ>PP",2,"below","PP>OBJ >> OBJ>PP","condition 1 >> condition 2",7527,521059,69,"test"
239,"t01_1_2","t01",1,2,"COM(S)","yes","PP>OBJ",1,"below","OBJ>PP >> PP>OBJ","condition 2 >> condition 1",6455,396598,45,"test"
224,"t01_1_2","t01",1,2,"COM(S)","yes","PP>OBJ",1,"below","OBJ>PP >> PP>OBJ","condition 2 >> condition 1",15225,286830,38,"test"
270,"t01_1_2","t01",1,2,"COM(S)","yes","PP>OBJ",1,"above","PP>OBJ >> OBJ>PP","condition 1 >> condition 2",12730,220403,19,"test"
247,"t01_1_2","t01",1,2,"COM(S)","yes","OBJ>PP",2,"below","PP>OBJ >> OBJ>PP","condition 1 >> condition 2",9797,147893,16,"test"
241,"t01_1_2","t01",1,2,"COM(S)","yes","PP>OBJ",1,"above","PP>OBJ >> OBJ>PP","condition 1 >> condition 2",9321,173167,17,"test"
220,"t01_1_2","t01",1,2,"COM(S)","yes","PP>OBJ",1,"above","PP>OBJ >> OBJ>PP","condition 1 >> condition 2",4802,180647,20,"test"
221,"t01_1_2","t01",1,2,"COM(S)","yes","PP>OBJ",1,"above","PP>OBJ >> OBJ>PP","condition 1 >> condition 2",17308,610126,55,"test"
254,"t01_1_2","t01",1,2,"COM(S)","yes","OBJ>PP",2,"above","OBJ>PP >> PP>OBJ","condition 2 >> condition 1",15204,764984,56,"test"
257,"t01_1_2","t01",1,2,"COM(S)","yes","PP>OBJ",1,"below","OBJ>PP >> PP>OBJ","condition 2 >> condition 1",8583,395945,37,"test"
231,"t01_1_2","t01",1,2,"COM(S)","yes","OBJ>PP",2,"below","PP>OBJ >> OBJ>PP","condition 1 >> condition 2",8551,403226,50,"test"
240,"t01_1_2","t01",1,2,"COM(S)","yes","OBJ>PP",2,"below","PP>OBJ >> OBJ>PP","condition 1 >> condition 2",12406,172632,15,"test"
270,"t02_1_2","t02",1,2,"COM(S)","yes","OBJ>PP",2,"below","PP>OBJ >> OBJ>PP","condition 1 >> condition 2",9970,805112,69,"test"
239,"t02_1_2","t02",1,2,"COM(S)","yes","PP>OBJ",1,"above","PP>OBJ >> OBJ>PP","condition 1 >> condition 2",10731,173588,17,"test"
254,"t02_1_2","t02",1,2,"COM(S)","yes","PP>OBJ",1,"below","OBJ>PP >> PP>OBJ","condition 2 >> condition 1",17072,557890,39,"test"
228,"t02_1_2","t02",1,2,"COM(S)","yes","PP>OBJ",1,"below","OBJ>PP >> PP>OBJ","condition 2 >> condition 1",10089,286320,29,"test"
243,"t02_1_2","t02",1,2,"COM(S)","yes","PP>OBJ",1,"above","PP>OBJ >> OBJ>PP","condition 1 >> condition 2",7555,507013,48,"test"
220,"t02_1_2","t02",1,2,"COM(S)","yes","PP>OBJ",1,"below","OBJ>PP >> PP>OBJ","condition 2 >> condition 1",10698,139176,16,"test"
247,"t02_1_2","t02",1,2,"COM(S)","yes","OBJ>PP",2,"above","OBJ>PP >> PP>OBJ","condition 2 >> condition 1",10035,426471,49,"test"
257,"t02_1_2","t02",1,2,"COM(S)","yes","PP>OBJ",1,"above","PP>OBJ >> OBJ>PP","condition 1 >> condition 2",11952,266514,23,"test"
223,"t02_1_2","t02",1,2,"COM(S)","yes","PP>OBJ",1,"above","PP>OBJ >> OBJ>PP","condition 1 >> condition 2",7041,129992,13,"test"
224,"t02_1_2","t02",1,2,"COM(S)","yes","OBJ>PP",2,"below","PP>OBJ >> OBJ>PP","condition 1 >> condition 2",5907,251758,34,"test"
263,"t02_1_2","t02",1,2,"COM(S)","yes","OBJ>PP",2,"below","PP>OBJ >> OBJ>PP","condition 1 >> condition 2",7121,537846,56,"test"
255,"t02_1_2","t02",1,2,"COM(S)","yes","PP>OBJ",1,"above","PP>OBJ >> OBJ>PP","condition 1 >> condition 2",10735,388867,26,"test"
271,"t02_1_2","t02",1,2,"COM(S)","yes","PP>OBJ",1,"below","OBJ>PP >> PP>OBJ","condition 2 >> condition 1",6811,61210,7,"test"
244,"t02_1_2","t02",1,2,"COM(S)","yes","OBJ>PP",2,"below","PP>OBJ >> OBJ>PP","condition 1 >> condition 2",6922,657918,70,"test"
231,"t02_1_2","t02",1,2,"COM(S)","yes","PP>OBJ",1,"below","OBJ>PP >> PP>OBJ","condition 2 >> condition 1",7168,278378,34,"test"
221,"t02_1_2","t02",1,2,"COM(S)","yes","PP>OBJ",1,"below","OBJ>PP >> PP>OBJ","condition 2 >> condition 1",6672,548026,49,"test"
241,"t02_1_2","t02",1,2,"COM(S)","yes","OBJ>PP",2,"below","PP>OBJ >> OBJ>PP","condition 1 >> condition 2",18937,81484,7,"test"
238,"t02_1_2","t02",1,2,"COM(S)","yes","OBJ>PP",2,"below","PP>OBJ >> OBJ>PP","condition 1 >> condition 2",7456,351524,45,"test"
222,"t02_1_2","t02",1,2,"COM(S)","yes","PP>OBJ",1,"above","PP>OBJ >> OBJ>PP","condition 1 >> condition 2",8824,421754,45,"test"
258,"t02_1_2","t02",1,2,"COM(S)","yes","PP>OBJ",1,"above","PP>OBJ >> OBJ>PP","condition 1 >> condition 2",6679,636735,66,"test"
267,"t02_1_2","t02",1,2,"COM(S)","yes","OBJ>PP",2,"below","PP>OBJ >> OBJ>PP","condition 1 >> condition 2",9216,415477,33,"test"
236,"t02_1_2","t02",1,2,"COM(S)","yes","PP>OBJ",1,"above","PP>OBJ >> OBJ>PP","condition 1 >> condition 2",10090,545063,47,"test"
225,"t02_1_2","t02",1,2,"COM(S)","yes","OBJ>PP",2,"above","OBJ>PP >> PP>OBJ","condition 2 >> condition 1",9069,461351,55,"test"
246,"t02_1_2","t02",1,2,"COM(S)","yes","PP>OBJ",1,"below","OBJ>PP >> PP>OBJ","condition 2 >> condition 1",6839,409032,42,"test"
240,"t02_1_2","t02",1,2,"COM(S)","yes","PP>OBJ",1,"below","OBJ>PP >> PP>OBJ","condition 2 >> condition 1",5879,478687,52,"test"
238,"t03_1_2","t03",1,2,"COM(S)","yes","PP>OBJ",1,"above","PP>OBJ >> OBJ>PP","condition 1 >> condition 2",5927,136268,17,"test"
267,"t03_1_2","t03",1,2,"COM(S)","yes","OBJ>PP",2,"below","PP>OBJ >> OBJ>PP","condition 1 >> condition 2",6947,662526,47,"test"
246,"t03_1_2","t03",1,2,"COM(S)","yes","PP>OBJ",1,"above","PP>OBJ >> OBJ>PP","condition 1 >> condition 2",6119,223591,24,"test"
258,"t03_1_2","t03",1,2,"COM(S)","yes","PP>OBJ",1,"below","OBJ>PP >> PP>OBJ","condition 2 >> condition 1",7718,97785,10,"test"
225,"t03_1_2","t03",1,2,"COM(S)","yes","OBJ>PP",2,"above","OBJ>PP >> PP>OBJ","condition 2 >> condition 1",8892,551448,66,"test"
243,"t03_1_2","t03",1,2,"COM(S)","yes","PP>OBJ",1,"above","PP>OBJ >> OBJ>PP","condition 1 >> condition 2",16239,588553,56,"test"
222,"t03_1_2","t03",1,2,"COM(S)","yes","PP>OBJ",1,"above","PP>OBJ >> OBJ>PP","condition 1 >> condition 2",11397,133684,11,"test"
270,"t03_1_2","t03",1,2,"COM(S)","yes","PP>OBJ",1,"below","OBJ>PP >> PP>OBJ","condition 2 >> condition 1",19236,76655,6,"test"
220,"t03_1_2","t03",1,2,"COM(S)","yes","OBJ>PP",2,"above","OBJ>PP >> PP>OBJ","condition 2 >> condition 1",7731,289713,31,"test"
241,"t03_1_2","t03",1,2,"COM(S)","yes","OBJ>PP",2,"below","PP>OBJ >> OBJ>PP","condition 1 >> condition 2",5962,458463,56,"test"
236,"t03_1_2","t03",1,2,"COM(S)","yes","OBJ>PP",2,"below","PP>OBJ >> OBJ>PP","condition 1 >> condition 2",14044,87962,7,"test"
221,"t03_1_2","t03",1,2,"COM(S)","yes","PP>OBJ",1,"below","OBJ>PP >> PP>OBJ","condition 2 >> condition 1",9892,237987,17,"test"
271,"t03_1_2","t03",1,2,"COM(S)","yes","PP>OBJ",1,"above","PP>OBJ >> OBJ>PP","condition 1 >> condition 2",10719,90232,10,"test"
257,"t03_1_2","t03",1,2,"COM(S)","yes","PP>OBJ",1,"above","PP>OBJ >> OBJ>PP","condition 1 >> condition 2",9849,689140,70,"test"
239,"t03_1_2","t03",1,2,"COM(S)","yes","PP>OBJ",1,"above","PP>OBJ >> OBJ>PP","condition 1 >> condition 2",8317,558434,70,"test"
244,"t03_1_2","t03",1,2,"COM(S)","yes","OBJ>PP",2,"below","PP>OBJ >> OBJ>PP","condition 1 >> condition 2",5357,234933,24,"test"
240,"t03_1_2","t03",1,2,"COM(S)","yes","PP>OBJ",1,"below","OBJ>PP >> PP>OBJ","condition 2 >> condition 1",8230,558935,61,"test"
231,"t03_1_2","t03",1,2,"COM(S)","yes","PP>OBJ",1,"below","OBJ>PP >> PP>OBJ","condition 2 >> condition 1",8018,351264,43,"test"
263,"t03_1_2","t03",1,2,"COM(S)","yes","PP>OBJ",1,"below","OBJ>PP >> PP>OBJ","condition 2 >> condition 1",7956,344762,21,"test"
223,"t03_1_2","t03",1,2,"COM(S)","yes","PP>OBJ",1,"above","PP>OBJ >> OBJ>PP","condition 1 >> condition 2",8007,616008,65,"test"
254,"t03_1_2","t03",1,2,"COM(S)","yes","OBJ>PP",2,"below","PP>OBJ >> OBJ>PP","condition 1 >> condition 2",8437,927880,69,"test"
255,"t03_1_2","t03",1,2,"COM(S)","yes","PP>OBJ",1,"above","PP>OBJ >> OBJ>PP","condition 1 >> condition 2",7526,765375,57,"test"
247,"t03_1_2","t03",1,2,"COM(S)","yes","PP>OBJ",1,"below","OBJ>PP >> PP>OBJ","condition 2 >> condition 1",8100,259664,28,"test"
224,"t03_1_2","t03",1,2,"COM(S)","yes","OBJ>PP",2,"below","PP>OBJ >> OBJ>PP","condition 1 >> condition 2",5881,450034,62,"test"
228,"t03_1_2","t03",1,2,"COM(S)","yes","PP>OBJ",1,"below","OBJ>PP >> PP>OBJ","condition 2 >> condition 1",7684,632825,66,"test"
258,"t04_1_2","t04",1,2,"COM(S)","yes","PP>OBJ",1,"below","OBJ>PP >> PP>OBJ","condition 2 >> condition 1",14098,557038,57,"test"
225,"t04_1_2","t04",1,2,"COM(S)","yes","PP>OBJ",1,"below","OBJ>PP >> PP>OBJ","condition 2 >> condition 1",5117,68933,9,"test"
247,"t04_1_2","t04",1,2,"COM(S)","yes","OBJ>PP",2,"above","OBJ>PP >> PP>OBJ","condition 2 >> condition 1",7361,228854,24,"test"
228,"t04_1_2","t04",1,2,"COM(S)","yes","PP>OBJ",1,"below","OBJ>PP >> PP>OBJ","condition 2 >> condition 1",9476,180896,16,"test"
263,"t04_1_2","t04",1,2,"COM(S)","yes","PP>OBJ",1,"above","PP>OBJ >> OBJ>PP","condition 1 >> condition 2",204821,270408,10,"test"
257,"t04_1_2","t04",1,2,"COM(S)","yes","PP>OBJ",1,"below","OBJ>PP >> PP>OBJ","condition 2 >> condition 1",8364,519162,53,"test"
246,"t04_1_2","t04",1,2,"COM(S)","yes","PP>OBJ",1,"below","OBJ>PP >> PP>OBJ","condition 2 >> condition 1",6414,210279,22,"test"
238,"t04_1_2","t04",1,2,"COM(S)","yes","OBJ>PP",2,"below","PP>OBJ >> OBJ>PP","condition 1 >> condition 2",8215,59812,6,"test"
243,"t04_1_2","t04",1,2,"COM(S)","yes","PP>OBJ",1,"above","PP>OBJ >> OBJ>PP","condition 1 >> condition 2",8746,356380,33,"test"
236,"t04_1_2","t04",1,2,"COM(S)","yes","PP>OBJ",1,"below","OBJ>PP >> PP>OBJ","condition 2 >> condition 1",9447,734800,68,"test"
271,"t04_1_2","t04",1,2,"COM(S)","yes","PP>OBJ",1,"below","OBJ>PP >> PP>OBJ","condition 2 >> condition 1",8829,123235,14,"test"
255,"t04_1_2","t04",1,2,"COM(S)","yes","OBJ>PP",2,"above","OBJ>PP >> PP>OBJ","condition 2 >> condition 1",9703,747446,55,"test"
220,"t04_1_2","t04",1,2,"COM(S)","yes","PP>OBJ",1,"above","PP>OBJ >> OBJ>PP","condition 1 >> condition 2",16310,169987,18,"test"
270,"t04_1_2","t04",1,2,"COM(S)","yes","PP>OBJ",1,"below","OBJ>PP >> PP>OBJ","condition 2 >> condition 1",13678,723248,61,"test"
222,"t04_1_2","t04",1,2,"COM(S)","yes","OBJ>PP",2,"above","OBJ>PP >> PP>OBJ","condition 2 >> condition 1",7754,455166,49,"test"
244,"t04_1_2","t04",1,2,"COM(S)","yes","PP>OBJ",1,"below","OBJ>PP >> PP>OBJ","condition 2 >> condition 1",7391,548187,62,"test"
223,"t04_1_2","t04",1,2,"COM(S)","yes","PP>OBJ",1,"below","OBJ>PP >> PP>OBJ","condition 2 >> condition 1",8025,280002,31,"test"
221,"t04_1_2","t04",1,2,"COM(S)","yes","PP>OBJ",1,"below","OBJ>PP >> PP>OBJ","condition 2 >> condition 1",8865,517123,45,"test"
231,"t04_1_2","t04",1,2,"COM(S)","yes","PP>OBJ",1,"above","PP>OBJ >> OBJ>PP","condition 1 >> condition 2",8056,372148,46,"test"
254,"t04_1_2","t04",1,2,"COM(S)","yes","PP>OBJ",1,"below","OBJ>PP >> PP>OBJ","condition 2 >> condition 1",19207,440410,28,"test"
224,"t04_1_2","t04",1,2,"COM(S)","yes","OBJ>PP",2,"above","OBJ>PP >> PP>OBJ","condition 2 >> condition 1",5857,507005,70,"test"
239,"t04_1_2","t04",1,2,"COM(S)","yes","PP>OBJ",1,"below","OBJ>PP >> PP>OBJ","condition 2 >> condition 1",9959,488518,58,"test"
240,"t04_1_2","t04",1,2,"COM(S)","yes","PP>OBJ",1,"above","PP>OBJ >> OBJ>PP","condition 1 >> condition 2",9574,540142,59,"test"
241,"t04_1_2","t04",1,2,"COM(S)","yes","OBJ>PP",2,"above","OBJ>PP >> PP>OBJ","condition 2 >> condition 1",26198,117113,10,"test"
267,"t04_1_2","t04",1,2,"COM(S)","yes","OBJ>PP",2,"below","PP>OBJ >> OBJ>PP","condition 1 >> condition 2",17959,824642,66,"test"
224,"t05_1_2","t05",1,2,"COM(S)","yes","OBJ>PP",2,"below","PP>OBJ >> OBJ>PP","condition 1 >> condition 2",5360,416508,56,"test"
222,"t05_1_2","t05",1,2,"COM(S)","yes","PP>OBJ",1,"above","PP>OBJ >> OBJ>PP","condition 1 >> condition 2",8298,291560,30,"test"
220,"t05_1_2","t05",1,2,"COM(S)","yes","PP>OBJ",1,"below","OBJ>PP >> PP>OBJ","condition 2 >> condition 1",5376,303489,33,"test"
225,"t05_1_2","t05",1,2,"COM(S)","yes","OBJ>PP",2,"below","PP>OBJ >> OBJ>PP","condition 1 >> condition 2",4855,372302,45,"test"
244,"t05_1_2","t05",1,2,"COM(S)","yes","PP>OBJ",1,"below","OBJ>PP >> PP>OBJ","condition 2 >> condition 1",13670,122170,11,"test"
257,"t05_1_2","t05",1,2,"COM(S)","yes","PP>OBJ",1,"above","PP>OBJ >> OBJ>PP","condition 1 >> condition 2",10157,299123,26,"test"
228,"t05_1_2","t05",1,2,"COM(S)","yes","PP>OBJ",1,"below","OBJ>PP >> PP>OBJ","condition 2 >> condition 1",8478,419756,42,"test"
254,"t05_1_2","t05",1,2,"COM(S)","yes","PP>OBJ",1,"above","PP>OBJ >> OBJ>PP","condition 1 >> condition 2",15241,166288,10,"test"
243,"t05_1_2","t05",1,2,"COM(S)","yes","PP>OBJ",1,"above","PP>OBJ >> OBJ>PP","condition 1 >> condition 2",26435,222530,20,"test"
241,"t05_1_2","t05",1,2,"COM(S)","yes","OBJ>PP",2,"above","OBJ>PP >> PP>OBJ","condition 2 >> condition 1",7168,249210,26,"test"
247,"t05_1_2","t05",1,2,"COM(S)","yes","OBJ>PP",2,"above","OBJ>PP >> PP>OBJ","condition 2 >> condition 1",12510,100094,10,"test"
238,"t05_1_2","t05",1,2,"COM(S)","yes","PP>OBJ",1,"below","OBJ>PP >> PP>OBJ","condition 2 >> condition 1",5895,461059,62,"test"
258,"t05_1_2","t05",1,2,"COM(S)","yes","OBJ>PP",2,"above","OBJ>PP >> PP>OBJ","condition 2 >> condition 1",7288,111975,12,"test"
239,"t05_1_2","t05",1,2,"COM(S)","yes","OBJ>PP",2,"below","PP>OBJ >> OBJ>PP","condition 1 >> condition 2",13257,131128,12,"test"
267,"t05_1_2","t05",1,2,"COM(S)","yes","OBJ>PP",2,"above","OBJ>PP >> PP>OBJ","condition 2 >> condition 1",11989,260215,18,"test"
270,"t05_1_2","t05",1,2,"COM(S)","yes","PP>OBJ",1,"below","OBJ>PP >> PP>OBJ","condition 2 >> condition 1",10328,751215,64,"test"
231,"t05_1_2","t05",1,2,"COM(S)","yes","OBJ>PP",2,"below","PP>OBJ >> OBJ>PP","condition 1 >> condition 2",8039,440526,54,"test"
263,"t05_1_2","t05",1,2,"COM(S)","yes","OBJ>PP",2,"below","PP>OBJ >> OBJ>PP","condition 1 >> condition 2",4838,489293,49,"test"
223,"t05_1_2","t05",1,2,"COM(S)","yes","PP>OBJ",1,"below","OBJ>PP >> PP>OBJ","condition 2 >> condition 1",12230,639864,68,"test"
271,"t05_1_2","t05",1,2,"COM(S)","yes","OBJ>PP",2,"below","PP>OBJ >> OBJ>PP","condition 1 >> condition 2",5685,293853,37,"test"
255,"t05_1_2","t05",1,2,"COM(S)","yes","OBJ>PP",2,"above","OBJ>PP >> PP>OBJ","condition 2 >> condition 1",16838,261790,17,"test"
246,"t05_1_2","t05",1,2,"COM(S)","yes","OBJ>PP",2,"above","OBJ>PP >> PP>OBJ","condition 2 >> condition 1",17417,148670,14,"test"
221,"t05_1_2","t05",1,2,"COM(S)","yes","OBJ>PP",2,"below","PP>OBJ >> OBJ>PP","condition 1 >> condition 2",17275,285200,21,"test"
236,"t05_1_2","t05",1,2,"COM(S)","yes","OBJ>PP",2,"below","PP>OBJ >> OBJ>PP","condition 1 >> condition 2",9168,520200,44,"test"
240,"t05_1_2","t05",1,2,"COM(S)","yes","PP>OBJ",1,"below","OBJ>PP >> PP>OBJ","condition 2 >> condition 1",15264,523767,57,"test"
224,"t06_1_2","t06",1,2,"COM(S)","yes","PP>OBJ",1,"above","PP>OBJ >> OBJ>PP","condition 1 >> condition 2",7423,367886,50,"test"
221,"t06_1_2","t06",1,2,"COM(S)","yes","OBJ>PP",2,"above","OBJ>PP >> PP>OBJ","condition 2 >> condition 1",13438,453660,37,"test"
239,"t06_1_2","t06",1,2,"COM(S)","yes","PP>OBJ",1,"below","OBJ>PP >> PP>OBJ","condition 2 >> condition 1",7122,423714,49,"test"
243,"t06_1_2","t06",1,2,"COM(S)","yes","PP>OBJ",1,"above","PP>OBJ >> OBJ>PP","condition 1 >> condition 2",14690,305968,28,"test"
238,"t06_1_2","t06",1,2,"COM(S)","yes","OBJ>PP",2,"above","OBJ>PP >> PP>OBJ","condition 2 >> condition 1",6958,221339,28,"test"
228,"t06_1_2","t06",1,2,"COM(S)","yes","PP>OBJ",1,"above","PP>OBJ >> OBJ>PP","condition 1 >> condition 2",6247,270849,27,"test"
246,"t06_1_2","t06",1,2,"COM(S)","yes","PP>OBJ",1,"above","PP>OBJ >> OBJ>PP","condition 1 >> condition 2",8899,163698,16,"test"
263,"t06_1_2","t06",1,2,"COM(S)","yes","PP>OBJ",1,"above","PP>OBJ >> OBJ>PP","condition 1 >> condition 2",7927,303076,15,"test"
240,"t06_1_2","t06",1,2,"COM(S)","yes","PP>OBJ",1,"above","PP>OBJ >> OBJ>PP","condition 1 >> condition 2",13614,79232,7,"test"
258,"t06_1_2","t06",1,2,"COM(S)","yes","PP>OBJ",1,"above","PP>OBJ >> OBJ>PP","condition 1 >> condition 2",7618,392694,39,"test"
257,"t06_1_2","t06",1,2,"COM(S)","yes","PP>OBJ",1,"below","OBJ>PP >> PP>OBJ","condition 2 >> condition 1",8092,654153,67,"test"
220,"t06_1_2","t06",1,2,"COM(S)","yes","PP>OBJ",1,"above","PP>OBJ >> OBJ>PP","condition 1 >> condition 2",6297,365739,40,"test"
247,"t06_1_2","t06",1,2,"COM(S)","yes","PP>OBJ",1,"below","OBJ>PP >> PP>OBJ","condition 2 >> condition 1",9771,491967,58,"test"
267,"t06_1_2","t06",1,2,"COM(S)","yes","PP>OBJ",1,"below","OBJ>PP >> PP>OBJ","condition 2 >> condition 1",14098,337117,25,"test"
236,"t06_1_2","t06",1,2,"COM(S)","yes","PP>OBJ",1,"above","PP>OBJ >> OBJ>PP","condition 1 >> condition 2",13120,328438,26,"test"
222,"t06_1_2","t06",1,2,"COM(S)","yes","OBJ>PP",2,"below","PP>OBJ >> OBJ>PP","condition 1 >> condition 2",9653,601756,67,"test"
271,"t06_1_2","t06",1,2,"COM(S)","yes","OBJ>PP",2,"below","PP>OBJ >> OBJ>PP","condition 1 >> condition 2",7786,358338,43,"test"
225,"t06_1_2","t06",1,2,"COM(S)","yes","OBJ>PP",2,"above","OBJ>PP >> PP>OBJ","condition 2 >> condition 1",13478,314893,37,"test"
241,"t06_1_2","t06",1,2,"COM(S)","yes","PP>OBJ",1,"above","PP>OBJ >> OBJ>PP","condition 1 >> condition 2",11094,382230,44,"test"
223,"t06_1_2","t06",1,2,"COM(S)","yes","PP>OBJ",1,"below","OBJ>PP >> PP>OBJ","condition 2 >> condition 1",12416,97117,9,"test"
270,"t06_1_2","t06",1,2,"COM(S)","yes","OBJ>PP",2,"above","OBJ>PP >> PP>OBJ","condition 2 >> condition 1",13018,546608,45,"test"
255,"t06_1_2","t06",1,2,"COM(S)","yes","PP>OBJ",1,"above","PP>OBJ >> OBJ>PP","condition 1 >> condition 2",14358,697628,51,"test"
231,"t06_1_2","t06",1,2,"COM(S)","yes","PP>OBJ",1,"below","OBJ>PP >> PP>OBJ","condition 2 >> condition 1",8290,139554,17,"test"
254,"t06_1_2","t06",1,2,"COM(S)","yes","PP>OBJ",1,"above","PP>OBJ >> OBJ>PP","condition 1 >> condition 2",10898,415088,26,"test"
244,"t06_1_2","t06",1,2,"COM(S)","yes","PP>OBJ",1,"below","OBJ>PP >> PP>OBJ","condition 2 >> condition 1",12913,515076,57,"test"
246,"t07_1_2","t07",1,2,"COM(S)","no","OBJ>PP",2,"above","OBJ>PP >> PP>OBJ","condition 2 >> condition 1",7810,561422,62,"test"
231,"t07_1_2","t07",1,2,"COM(S)","no","OBJ>PP",2,"below","PP>OBJ >> OBJ>PP","condition 1 >> condition 2",14279,68793,7,"test"
223,"t07_1_2","t07",1,2,"COM(S)","no","PP>OBJ",1,"above","PP>OBJ >> OBJ>PP","condition 1 >> condition 2",9376,180733,19,"test"
239,"t07_1_2","t07",1,2,"COM(S)","no","OBJ>PP",2,"below","PP>OBJ >> OBJ>PP","condition 1 >> condition 2",15138,208999,20,"test"
247,"t07_1_2","t07",1,2,"COM(S)","no","PP>OBJ",1,"below","OBJ>PP >> PP>OBJ","condition 2 >> condition 1",9341,123829,13,"test"
240,"t07_1_2","t07",1,2,"COM(S)","no","PP>OBJ",1,"below","OBJ>PP >> PP>OBJ","condition 2 >> condition 1",7022,594263,66,"test"
258,"t07_1_2","t07",1,2,"COM(S)","no","OBJ>PP",2,"above","OBJ>PP >> PP>OBJ","condition 2 >> condition 1",9371,368810,37,"test"
267,"t07_1_2","t07",1,2,"COM(S)","no","OBJ>PP",2,"below","PP>OBJ >> OBJ>PP","condition 1 >> condition 2",8516,734035,56,"test"
243,"t07_1_2","t07",1,2,"COM(S)","no","OBJ>PP",2,"below","PP>OBJ >> OBJ>PP","condition 1 >> condition 2",18327,660109,61,"test"
236,"t07_1_2","t07",1,2,"COM(S)","no","PP>OBJ",1,"above","PP>OBJ >> OBJ>PP","condition 1 >> condition 2",14671,720399,66,"test"
228,"t07_1_2","t07",1,2,"COM(S)","no","PP>OBJ",1,"above","PP>OBJ >> OBJ>PP","condition 1 >> condition 2",13444,163327,14,"test"
224,"t07_1_2","t07",1,2,"COM(S)","no","OBJ>PP",2,"above","OBJ>PP >> PP>OBJ","condition 2 >> condition 1",5803,225329,29,"test"
225,"t07_1_2","t07",1,2,"COM(S)","no","OBJ>PP",2,"below","PP>OBJ >> OBJ>PP","condition 1 >> condition 2",6079,293560,35,"test"
271,"t07_1_2","t07",1,2,"COM(S)","no","OBJ>PP",2,"below","PP>OBJ >> OBJ>PP","condition 1 >> condition 2",4773,455311,58,"test"
241,"t07_1_2","t07",1,2,"COM(S)","no","OBJ>PP",2,"below","PP>OBJ >> OBJ>PP","condition 1 >> condition 2",8354,409898,49,"test"
255,"t07_1_2","t07",1,2,"COM(S)","no","OBJ>PP",2,"above","OBJ>PP >> PP>OBJ","condition 2 >> condition 1",7994,794661,60,"test"
244,"t07_1_2","t07",1,2,"COM(S)","no","OBJ>PP",2,"above","OBJ>PP >> PP>OBJ","condition 2 >> condition 1",10251,575651,65,"test"
238,"t07_1_2","t07",1,2,"COM(S)","no","OBJ>PP",2,"above","OBJ>PP >> PP>OBJ","condition 2 >> condition 1",5663,449707,60,"test"
222,"t07_1_2","t07",1,2,"COM(S)","no","OBJ>PP",2,"above","OBJ>PP >> PP>OBJ","condition 2 >> condition 1",6263,383784,40,"test"
257,"t07_1_2","t07",1,2,"COM(S)","no","PP>OBJ",1,"above","PP>OBJ >> OBJ>PP","condition 1 >> condition 2",7564,313426,28,"test"
270,"t07_1_2","t07",1,2,"COM(S)","no","OBJ>PP",2,"below","PP>OBJ >> OBJ>PP","condition 1 >> condition 2",11800,160070,13,"test"
263,"t07_1_2","t07",1,2,"COM(S)","no","OBJ>PP",2,"below","PP>OBJ >> OBJ>PP","condition 1 >> condition 2",5568,414040,35,"test"
220,"t07_1_2","t07",1,2,"COM(S)","no","OBJ>PP",2,"above","OBJ>PP >> PP>OBJ","condition 2 >> condition 1",3467,581756,67,"test"
221,"t07_1_2","t07",1,2,"COM(S)","no","PP>OBJ",1,"above","PP>OBJ >> OBJ>PP","condition 1 >> condition 2",9574,533439,47,"test"
254,"t07_1_2","t07",1,2,"COM(S)","no","PP>OBJ",1,"below","OBJ>PP >> PP>OBJ","condition 2 >> condition 1",15079,320692,21,"test"
238,"t08_1_2","t08",1,2,"COM(S)","no","PP>OBJ",1,"below","OBJ>PP >> PP>OBJ","condition 2 >> condition 1",11288,190844,23,"test"
270,"t08_1_2","t08",1,2,"COM(S)","no","OBJ>PP",2,"below","PP>OBJ >> OBJ>PP","condition 1 >> condition 2",6875,411961,35,"test"
241,"t08_1_2","t08",1,2,"COM(S)","no","OBJ>PP",2,"below","PP>OBJ >> OBJ>PP","condition 1 >> condition 2",9905,542041,69,"test"
255,"t08_1_2","t08",1,2,"COM(S)","no","PP>OBJ",1,"above","PP>OBJ >> OBJ>PP","condition 1 >> condition 2",13195,460065,31,"test"
239,"t08_1_2","t08",1,2,"COM(S)","no","PP>OBJ",1,"below","OBJ>PP >> PP>OBJ","condition 2 >> condition 1",6333,278235,29,"test"
243,"t08_1_2","t08",1,2,"COM(S)","no","PP>OBJ",1,"above","PP>OBJ >> OBJ>PP","condition 1 >> condition 2",7797,401300,38,"test"
220,"t08_1_2","t08",1,2,"COM(S)","no","OBJ>PP",2,"above","OBJ>PP >> PP>OBJ","condition 2 >> condition 1",15760,69928,7,"test"
247,"t08_1_2","t08",1,2,"COM(S)","no","OBJ>PP",2,"above","OBJ>PP >> PP>OBJ","condition 2 >> condition 1",8325,208129,21,"test"
244,"t08_1_2","t08",1,2,"COM(S)","no","OBJ>PP",2,"below","PP>OBJ >> OBJ>PP","condition 1 >> condition 2",7938,260817,26,"test"
271,"t08_1_2","t08",1,2,"COM(S)","no","OBJ>PP",2,"below","PP>OBJ >> OBJ>PP","condition 1 >> condition 2",8286,488948,63,"test"
225,"t08_1_2","t08",1,2,"COM(S)","no","OBJ>PP",2,"below","PP>OBJ >> OBJ>PP","condition 1 >> condition 2",7523,407849,49,"test"
258,"t08_1_2","t08",1,2,"COM(S)","no","OBJ>PP",2,"below","PP>OBJ >> OBJ>PP","condition 1 >> condition 2",9552,508501,52,"test"
263,"t08_1_2","t08",1,2,"COM(S)","no","OBJ>PP",2,"below","PP>OBJ >> OBJ>PP","condition 1 >> condition 2",6040,424768,37,"test"
223,"t08_1_2","t08",1,2,"COM(S)","no","PP>OBJ",1,"above","PP>OBJ >> OBJ>PP","condition 1 >> condition 2",9388,218766,23,"test"
221,"t08_1_2","t08",1,2,"COM(S)","no","OBJ>PP",2,"above","OBJ>PP >> PP>OBJ","condition 2 >> condition 1",14081,100067,7,"test"
231,"t08_1_2","t08",1,2,"COM(S)","no","OBJ>PP",2,"below","PP>OBJ >> OBJ>PP","condition 1 >> condition 2",7663,195917,24,"test"
267,"t08_1_2","t08",1,2,"COM(S)","no","OBJ>PP",2,"below","PP>OBJ >> OBJ>PP","condition 1 >> condition 2",10072,295876,21,"test"
254,"t08_1_2","t08",1,2,"COM(S)","no","PP>OBJ",1,"below","OBJ>PP >> PP>OBJ","condition 2 >> condition 1",8803,879026,64,"test"
224,"t08_1_2","t08",1,2,"COM(S)","no","OBJ>PP",2,"above","OBJ>PP >> PP>OBJ","condition 2 >> condition 1",6566,105303,11,"test"
246,"t08_1_2","t08",1,2,"COM(S)","no","OBJ>PP",2,"below","PP>OBJ >> OBJ>PP","condition 1 >> condition 2",6391,467618,50,"test"
257,"t08_1_2","t08",1,2,"COM(S)","no","PP>OBJ",1,"above","PP>OBJ >> OBJ>PP","condition 1 >> condition 2",7150,485876,49,"test"
236,"t08_1_2","t08",1,2,"COM(S)","no","PP>OBJ",1,"below","OBJ>PP >> PP>OBJ","condition 2 >> condition 1",10213,587826,52,"test"
222,"t08_1_2","t08",1,2,"COM(S)","no","PP>OBJ",1,"above","PP>OBJ >> OBJ>PP","condition 1 >> condition 2",13683,105286,8,"test"
228,"t08_1_2","t08",1,2,"COM(S)","no","OBJ>PP",2,"below","PP>OBJ >> OBJ>PP","condition 1 >> condition 2",9538,656418,69,"test"
240,"t08_1_2","t08",1,2,"COM(S)","no","PP>OBJ",1,"above","PP>OBJ >> OBJ>PP","condition 1 >> condition 2",7566,501479,55,"test"
240,"t09_1_2","t09",1,2,"COM(S)","no","PP>OBJ",1,"below","OBJ>PP >> PP>OBJ","condition 2 >> condition 1",7918,341639,36,"test"
254,"t09_1_2","t09",1,2,"COM(S)","no","OBJ>PP",2,"below","PP>OBJ >> OBJ>PP","condition 1 >> condition 2",19229,127578,8,"test"
255,"t09_1_2","t09",1,2,"COM(S)","no","OBJ>PP",2,"below","PP>OBJ >> OBJ>PP","condition 1 >> condition 2",13718,841922,64,"test"
225,"t09_1_2","t09",1,2,"COM(S)","no","OBJ>PP",2,"below","PP>OBJ >> OBJ>PP","condition 1 >> condition 2",8188,513299,62,"test"
246,"t09_1_2","t09",1,2,"COM(S)","no","PP>OBJ",1,"below","OBJ>PP >> PP>OBJ","condition 2 >> condition 1",11890,370433,37,"test"
236,"t09_1_2","t09",1,2,"COM(S)","no","PP>OBJ",1,"below","OBJ>PP >> PP>OBJ","condition 2 >> condition 1",8033,648088,60,"test"
271,"t09_1_2","t09",1,2,"COM(S)","no","OBJ>PP",2,"below","PP>OBJ >> OBJ>PP","condition 1 >> condition 2",5714,531269,70,"test"
247,"t09_1_2","t09",1,2,"COM(S)","no","PP>OBJ",1,"below","OBJ>PP >> PP>OBJ","condition 2 >> condition 1",14619,55386,6,"test"
221,"t09_1_2","t09",1,2,"COM(S)","no","PP>OBJ",1,"below","OBJ>PP >> PP>OBJ","condition 2 >> condition 1",9036,576804,52,"test"
231,"t09_1_2","t09",1,2,"COM(S)","no","OBJ>PP",2,"below","PP>OBJ >> OBJ>PP","condition 1 >> condition 2",6375,458480,56,"test"
238,"t09_1_2","t09",1,2,"COM(S)","no","OBJ>PP",2,"below","PP>OBJ >> OBJ>PP","condition 1 >> condition 2",6454,210228,26,"test"
239,"t09_1_2","t09",1,2,"COM(S)","no","OBJ>PP",2,"below","PP>OBJ >> OBJ>PP","condition 1 >> condition 2",5668,379650,42,"test"
243,"t09_1_2","t09",1,2,"COM(S)","no","OBJ>PP",2,"above","OBJ>PP >> PP>OBJ","condition 2 >> condition 1",13769,550013,53,"test"
228,"t09_1_2","t09",1,2,"COM(S)","no","PP>OBJ",1,"below","OBJ>PP >> PP>OBJ","condition 2 >> condition 1",8807,517025,52,"test"
257,"t09_1_2","t09",1,2,"COM(S)","no","PP>OBJ",1,"above","PP>OBJ >> OBJ>PP","condition 1 >> condition 2",13643,354632,32,"test"
267,"t09_1_2","t09",1,2,"COM(S)","no","OBJ>PP",2,"below","PP>OBJ >> OBJ>PP","condition 1 >> condition 2",12571,767667,60,"test"
222,"t09_1_2","t09",1,2,"COM(S)","no","PP>OBJ",1,"above","PP>OBJ >> OBJ>PP","condition 1 >> condition 2",7912,582831,65,"test"
244,"t09_1_2","t09",1,2,"COM(S)","no","OBJ>PP",2,"above","OBJ>PP >> PP>OBJ","condition 2 >> condition 1",23581,102040,9,"test"
241,"t09_1_2","t09",1,2,"COM(S)","no","PP>OBJ",1,"below","OBJ>PP >> PP>OBJ","condition 2 >> condition 1",13642,225269,23,"test"
220,"t09_1_2","t09",1,2,"COM(S)","no","OBJ>PP",2,"below","PP>OBJ >> OBJ>PP","condition 1 >> condition 2",6983,616319,70,"test"
223,"t09_1_2","t09",1,2,"COM(S)","no","PP>OBJ",1,"above","PP>OBJ >> OBJ>PP","condition 1 >> condition 2",11048,118401,11,"test"
224,"t09_1_2","t09",1,2,"COM(S)","no","OBJ>PP",2,"above","OBJ>PP >> PP>OBJ","condition 2 >> condition 1",10440,157550,19,"test"
263,"t09_1_2","t09",1,2,"COM(S)","no","PP>OBJ",1,"above","PP>OBJ >> OBJ>PP","condition 1 >> condition 2",6269,508981,52,"test"
270,"t09_1_2","t09",1,2,"COM(S)","no","OBJ>PP",2,"below","PP>OBJ >> OBJ>PP","condition 1 >> condition 2",13269,99843,8,"test"
258,"t09_1_2","t09",1,2,"COM(S)","no","OBJ>PP",2,"above","OBJ>PP >> PP>OBJ","condition 2 >> condition 1",9070,663433,69,"test"
255,"t10_1_2","t10",1,2,"COM(S)","no","OBJ>PP",2,"above","OBJ>PP >> PP>OBJ","condition 2 >> condition 1",6055,591181,43,"test"
228,"t10_1_2","t10",1,2,"COM(S)","no","PP>OBJ",1,"above","PP>OBJ >> OBJ>PP","condition 1 >> condition 2",11046,211118,19,"test"
222,"t10_1_2","t10",1,2,"COM(S)","no","PP>OBJ",1,"above","PP>OBJ >> OBJ>PP","condition 1 >> condition 2",11233,265684,26,"test"
225,"t10_1_2","t10",1,2,"COM(S)","no","OBJ>PP",2,"above","OBJ>PP >> PP>OBJ","condition 2 >> condition 1",10411,281379,33,"test"
224,"t10_1_2","t10",1,2,"COM(S)","no","OBJ>PP",2,"above","OBJ>PP >> PP>OBJ","condition 2 >> condition 1",14010,62068,6,"test"
257,"t10_1_2","t10",1,2,"COM(S)","no","PP>OBJ",1,"above","PP>OBJ >> OBJ>PP","condition 1 >> condition 2",9834,471443,47,"test"
240,"t10_1_2","t10",1,2,"COM(S)","no","PP>OBJ",1,"below","OBJ>PP >> PP>OBJ","condition 2 >> condition 1",8295,302191,31,"test"
270,"t10_1_2","t10",1,2,"COM(S)","no","OBJ>PP",2,"above","OBJ>PP >> PP>OBJ","condition 2 >> condition 1",9366,629164,53,"test"
221,"t10_1_2","t10",1,2,"COM(S)","no","PP>OBJ",1,"below","OBJ>PP >> PP>OBJ","condition 2 >> condition 1",17576,392208,31,"test"
236,"t10_1_2","t10",1,2,"COM(S)","no","OBJ>PP",2,"above","OBJ>PP >> PP>OBJ","condition 2 >> condition 1",11517,687071,63,"test"
239,"t10_1_2","t10",1,2,"COM(S)","no","PP>OBJ",1,"below","OBJ>PP >> PP>OBJ","condition 2 >> condition 1",17110,474926,56,"test"
238,"t10_1_2","t10",1,2,"COM(S)","no","OBJ>PP",2,"below","PP>OBJ >> OBJ>PP","condition 1 >> condition 2",8263,81796,9,"test"
220,"t10_1_2","t10",1,2,"COM(S)","no","PP>OBJ",1,"below","OBJ>PP >> PP>OBJ","condition 2 >> condition 1",6863,520355,59,"test"
271,"t10_1_2","t10",1,2,"COM(S)","no","OBJ>PP",2,"below","PP>OBJ >> OBJ>PP","condition 1 >> condition 2",7961,164671,19,"test"
241,"t10_1_2","t10",1,2,"COM(S)","no","OBJ>PP",2,"above","OBJ>PP >> PP>OBJ","condition 2 >> condition 1",6799,259155,28,"test"
258,"t10_1_2","t10",1,2,"COM(S)","no","OBJ>PP",2,"above","OBJ>PP >> PP>OBJ","condition 2 >> condition 1",11368,196679,22,"test"
254,"t10_1_2","t10",1,2,"COM(S)","no","PP>OBJ",1,"above","PP>OBJ >> OBJ>PP","condition 1 >> condition 2",14568,224618,13,"test"
246,"t10_1_2","t10",1,2,"COM(S)","no","PP>OBJ",1,"above","PP>OBJ >> OBJ>PP","condition 1 >> condition 2",8238,394790,40,"test"
263,"t10_1_2","t10",1,2,"COM(S)","no","OBJ>PP",2,"below","PP>OBJ >> OBJ>PP","condition 1 >> condition 2",4725,352814,23,"test"
243,"t10_1_2","t10",1,2,"COM(S)","no","OBJ>PP",2,"below","PP>OBJ >> OBJ>PP","condition 1 >> condition 2",10305,710343,67,"test"
267,"t10_1_2","t10",1,2,"COM(S)","no","OBJ>PP",2,"below","PP>OBJ >> OBJ>PP","condition 1 >> condition 2",11371,457695,36,"test"
231,"t10_1_2","t10",1,2,"COM(S)","no","PP>OBJ",1,"below","OBJ>PP >> PP>OBJ","condition 2 >> condition 1",7157,125770,15,"test"
247,"t10_1_2","t10",1,2,"COM(S)","no","OBJ>PP",2,"below","PP>OBJ >> OBJ>PP","condition 1 >> condition 2",8862,546336,64,"test"
223,"t10_1_2","t10",1,2,"COM(S)","no","PP>OBJ",1,"below","OBJ>PP >> PP>OBJ","condition 2 >> condition 1",4981,481165,50,"test"
244,"t10_1_2","t10",1,2,"COM(S)","no","OBJ>PP",2,"above","OBJ>PP >> PP>OBJ","condition 2 >> condition 1",7286,149419,14,"test"
255,"t11_1_2","t11",1,2,"COM(S)","no","OBJ>PP",2,"below","PP>OBJ >> OBJ>PP","condition 1 >> condition 2",8741,901471,70,"test"
257,"t11_1_2","t11",1,2,"COM(S)","no","PP>OBJ",1,"below","OBJ>PP >> PP>OBJ","condition 2 >> condition 1",9845,505165,51,"test"
241,"t11_1_2","t11",1,2,"COM(S)","no","OBJ>PP",2,"below","PP>OBJ >> OBJ>PP","condition 1 >> condition 2",6265,504657,64,"test"
263,"t11_1_2","t11",1,2,"COM(S)","no","OBJ>PP",2,"below","PP>OBJ >> OBJ>PP","condition 1 >> condition 2",7375,436490,39,"test"
247,"t11_1_2","t11",1,2,"COM(S)","no","PP>OBJ",1,"below","OBJ>PP >> PP>OBJ","condition 2 >> condition 1",9550,510566,60,"test"
221,"t11_1_2","t11",1,2,"COM(S)","no","PP>OBJ",1,"below","OBJ>PP >> PP>OBJ","condition 2 >> condition 1",9435,729572,67,"test"
271,"t11_1_2","t11",1,2,"COM(S)","no","OBJ>PP",2,"below","PP>OBJ >> OBJ>PP","condition 1 >> condition 2",8034,136459,16,"test"
246,"t11_1_2","t11",1,2,"COM(S)","no","OBJ>PP",2,"above","OBJ>PP >> PP>OBJ","condition 2 >> condition 1",9920,108346,11,"test"
231,"t11_1_2","t11",1,2,"COM(S)","no","PP>OBJ",1,"below","OBJ>PP >> PP>OBJ","condition 2 >> condition 1",5218,490982,62,"test"
223,"t11_1_2","t11",1,2,"COM(S)","no","PP>OBJ",1,"below","OBJ>PP >> PP>OBJ","condition 2 >> condition 1",7530,194453,21,"test"
240,"t11_1_2","t11",1,2,"COM(S)","no","PP>OBJ",1,"above","PP>OBJ >> OBJ>PP","condition 1 >> condition 2",7974,279559,27,"test"
244,"t11_1_2","t11",1,2,"COM(S)","no","OBJ>PP",2,"below","PP>OBJ >> OBJ>PP","condition 1 >> condition 2",9639,459688,50,"test"
254,"t11_1_2","t11",1,2,"COM(S)","no","OBJ>PP",2,"below","PP>OBJ >> OBJ>PP","condition 1 >> condition 2",29464,369316,24,"test"
224,"t11_1_2","t11",1,2,"COM(S)","no","OBJ>PP",2,"above","OBJ>PP >> PP>OBJ","condition 2 >> condition 1",6396,264552,36,"test"
243,"t11_1_2","t11",1,2,"COM(S)","no","OBJ>PP",2,"above","OBJ>PP >> PP>OBJ","condition 2 >> condition 1",15711,333889,30,"test"
238,"t11_1_2","t11",1,2,"COM(S)","no","PP>OBJ",1,"above","PP>OBJ >> OBJ>PP","condition 1 >> condition 2",16391,288820,35,"test"
228,"t11_1_2","t11",1,2,"COM(S)","no","OBJ>PP",2,"above","OBJ>PP >> PP>OBJ","condition 2 >> condition 1",9658,610958,63,"test"
225,"t11_1_2","t11",1,2,"COM(S)","no","OBJ>PP",2,"below","PP>OBJ >> OBJ>PP","condition 1 >> condition 2",15589,395799,47,"test"
239,"t11_1_2","t11",1,2,"COM(S)","no","PP>OBJ",1,"below","OBJ>PP >> PP>OBJ","condition 2 >> condition 1",4565,508982,62,"test"
270,"t11_1_2","t11",1,2,"COM(S)","no","OBJ>PP",2,"above","OBJ>PP >> PP>OBJ","condition 2 >> condition 1",9417,592679,49,"test"
222,"t11_1_2","t11",1,2,"COM(S)","no","PP>OBJ",1,"above","PP>OBJ >> OBJ>PP","condition 1 >> condition 2",7554,170957,15,"test"
236,"t11_1_2","t11",1,2,"COM(S)","no","OBJ>PP",2,"below","PP>OBJ >> OBJ>PP","condition 1 >> condition 2",13375,302987,24,"test"
258,"t11_1_2","t11",1,2,"COM(S)","no","OBJ>PP",2,"below","PP>OBJ >> OBJ>PP","condition 1 >> condition 2",7343,129392,15,"test"
267,"t11_1_2","t11",1,2,"COM(S)","no","OBJ>PP",2,"above","OBJ>PP >> PP>OBJ","condition 2 >> condition 1",22191,184752,11,"test"
220,"t11_1_2","t11",1,2,"COM(S)","no","OBJ>PP",2,"below","PP>OBJ >> OBJ>PP","condition 1 >> condition 2",4819,468848,52,"test"
255,"t12_1_2","t12",1,2,"COM(S)","no","OBJ>PP",2,"below","PP>OBJ >> OBJ>PP","condition 1 >> condition 2",12131,518245,36,"test"
247,"t12_1_2","t12",1,2,"COM(S)","no","OBJ>PP",2,"below","PP>OBJ >> OBJ>PP","condition 1 >> condition 2",5439,458536,54,"test"
220,"t12_1_2","t12",1,2,"COM(S)","no","PP>OBJ",1,"above","PP>OBJ >> OBJ>PP","condition 1 >> condition 2",5003,251604,29,"test"
258,"t12_1_2","t12",1,2,"COM(S)","no","PP>OBJ",1,"below","OBJ>PP >> PP>OBJ","condition 2 >> condition 1",9445,575745,59,"test"
231,"t12_1_2","t12",1,2,"COM(S)","no","PP>OBJ",1,"below","OBJ>PP >> PP>OBJ","condition 2 >> condition 1",8038,476972,59,"test"
240,"t12_1_2","t12",1,2,"COM(S)","no","PP>OBJ",1,"below","OBJ>PP >> PP>OBJ","condition 2 >> condition 1",6679,253407,25,"test"
267,"t12_1_2","t12",1,2,"COM(S)","no","PP>OBJ",1,"above","PP>OBJ >> OBJ>PP","condition 1 >> condition 2",9613,585716,44,"test"
271,"t12_1_2","t12",1,2,"COM(S)","no","OBJ>PP",2,"below","PP>OBJ >> OBJ>PP","condition 1 >> condition 2",7906,423334,53,"test"
225,"t12_1_2","t12",1,2,"COM(S)","no","PP>OBJ",1,"below","OBJ>PP >> PP>OBJ","condition 2 >> condition 1",7618,201258,25,"test"
257,"t12_1_2","t12",1,2,"COM(S)","no","PP>OBJ",1,"above","PP>OBJ >> OBJ>PP","condition 1 >> condition 2",14191,96413,8,"test"
241,"t12_1_2","t12",1,2,"COM(S)","no","OBJ>PP",2,"below","PP>OBJ >> OBJ>PP","condition 1 >> condition 2",6828,194091,20,"test"
236,"t12_1_2","t12",1,2,"COM(S)","no","PP>OBJ",1,"above","PP>OBJ >> OBJ>PP","condition 1 >> condition 2",20078,281182,22,"test"
223,"t12_1_2","t12",1,2,"COM(S)","no","PP>OBJ",1,"above","PP>OBJ >> OBJ>PP","condition 1 >> condition 2",11616,79177,7,"test"
239,"t12_1_2","t12",1,2,"COM(S)","no","OBJ>PP",2,"above","OBJ>PP >> PP>OBJ","condition 2 >> condition 1",8978,255951,26,"test"
222,"t12_1_2","t12",1,2,"COM(S)","no","OBJ>PP",2,"above","OBJ>PP >> PP>OBJ","condition 2 >> condition 1",10630,200366,19,"test"
228,"t12_1_2","t12",1,2,"COM(S)","no","OBJ>PP",2,"below","PP>OBJ >> OBJ>PP","condition 1 >> condition 2",9555,552014,56,"test"
243,"t12_1_2","t12",1,2,"COM(S)","no","OBJ>PP",2,"above","OBJ>PP >> PP>OBJ","condition 2 >> condition 1",13510,270533,25,"test"
224,"t12_1_2","t12",1,2,"COM(S)","no","OBJ>PP",2,"above","OBJ>PP >> PP>OBJ","condition 2 >> condition 1",6268,328722,44,"test"
238,"t12_1_2","t12",1,2,"COM(S)","no","OBJ>PP",2,"above","OBJ>PP >> PP>OBJ","condition 2 >> condition 1",8319,486715,64,"test"
244,"t12_1_2","t12",1,2,"COM(S)","no","OBJ>PP",2,"below","PP>OBJ >> OBJ>PP","condition 1 >> condition 2",7960,222177,22,"test"
254,"t12_1_2","t12",1,2,"COM(S)","no","PP>OBJ",1,"above","PP>OBJ >> OBJ>PP","condition 1 >> condition 2",14782,500960,34,"test"
246,"t12_1_2","t12",1,2,"COM(S)","no","PP>OBJ",1,"below","OBJ>PP >> PP>OBJ","condition 2 >> condition 1",10449,82150,8,"test"
270,"t12_1_2","t12",1,2,"COM(S)","no","PP>OBJ",1,"below","OBJ>PP >> PP>OBJ","condition 2 >> condition 1",13318,120022,10,"test"
221,"t12_1_2","t12",1,2,"COM(S)","no","PP>OBJ",1,"above","PP>OBJ >> OBJ>PP","condition 1 >> condition 2",9976,492685,42,"test"
263,"t12_1_2","t12",1,2,"COM(S)","no","OBJ>PP",2,"below","PP>OBJ >> OBJ>PP","condition 1 >> condition 2",11489,372198,26,"test"
271,"t13_1_2","t13",1,2,"INSTR","yes","OBJ>PP",2,"above","OBJ>PP >> PP>OBJ","condition 2 >> condition 1",6281,220575,26,"test"
243,"t13_1_2","t13",1,2,"INSTR","yes","OBJ>PP",2,"below","PP>OBJ >> OBJ>PP","condition 1 >> condition 2",11825,76341,7,"test"
246,"t13_1_2","t13",1,2,"INSTR","yes","OBJ>PP",2,"above","OBJ>PP >> PP>OBJ","condition 2 >> condition 1",14180,323847,32,"test"
222,"t13_1_2","t13",1,2,"INSTR","yes","PP>OBJ",1,"above","PP>OBJ >> OBJ>PP","condition 1 >> condition 2",12819,540483,59,"test"
255,"t13_1_2","t13",1,2,"INSTR","yes","OBJ>PP",2,"below","PP>OBJ >> OBJ>PP","condition 1 >> condition 2",10619,544914,38,"test"
257,"t13_1_2","t13",1,2,"INSTR","yes","OBJ>PP",2,"below","PP>OBJ >> OBJ>PP","condition 1 >> condition 2",9158,127895,11,"test"
225,"t13_1_2","t13",1,2,"INSTR","yes","OBJ>PP",2,"below","PP>OBJ >> OBJ>PP","condition 1 >> condition 2",6457,265561,31,"test"
244,"t13_1_2","t13",1,2,"INSTR","yes","OBJ>PP",2,"above","OBJ>PP >> PP>OBJ","condition 2 >> condition 1",14552,59367,6,"test"
228,"t13_1_2","t13",1,2,"INSTR","yes","PP>OBJ",1,"above","PP>OBJ >> OBJ>PP","condition 1 >> condition 2",10639,461046,46,"test"
236,"t13_1_2","t13",1,2,"INSTR","yes","OBJ>PP",2,"below","PP>OBJ >> OBJ>PP","condition 1 >> condition 2",10842,371459,30,"test"
239,"t13_1_2","t13",1,2,"INSTR","yes","OBJ>PP",2,"above","OBJ>PP >> PP>OBJ","condition 2 >> condition 1",5200,433203,51,"test"
238,"t13_1_2","t13",1,2,"INSTR","yes","PP>OBJ",1,"above","PP>OBJ >> OBJ>PP","condition 1 >> condition 2",7823,409468,53,"test"
270,"t13_1_2","t13",1,2,"INSTR","yes","OBJ>PP",2,"above","OBJ>PP >> PP>OBJ","condition 2 >> condition 1",8794,665810,56,"test"
241,"t13_1_2","t13",1,2,"INSTR","yes","OBJ>PP",2,"below","PP>OBJ >> OBJ>PP","condition 1 >> condition 2",5984,302678,34,"test"
263,"t13_1_2","t13",1,2,"INSTR","yes","OBJ>PP",2,"above","OBJ>PP >> PP>OBJ","condition 2 >> condition 1",6675,332032,19,"test"
254,"t13_1_2","t13",1,2,"INSTR","yes","OBJ>PP",2,"above","OBJ>PP >> PP>OBJ","condition 2 >> condition 1",13588,902132,66,"test"
223,"t13_1_2","t13",1,2,"INSTR","yes","OBJ>PP",2,"above","OBJ>PP >> PP>OBJ","condition 2 >> condition 1",7458,469286,48,"test"
258,"t13_1_2","t13",1,2,"INSTR","yes","OBJ>PP",2,"above","OBJ>PP >> PP>OBJ","condition 2 >> condition 1",7290,426321,42,"test"
221,"t13_1_2","t13",1,2,"INSTR","yes","OBJ>PP",2,"above","OBJ>PP >> PP>OBJ","condition 2 >> condition 1",15720,192250,13,"test"
224,"t13_1_2","t13",1,2,"INSTR","yes","OBJ>PP",2,"below","PP>OBJ >> OBJ>PP","condition 1 >> condition 2",6895,183876,23,"test"
247,"t13_1_2","t13",1,2,"INSTR","yes","OBJ>PP",2,"above","OBJ>PP >> PP>OBJ","condition 2 >> condition 1",7829,386473,44,"test"
267,"t13_1_2","t13",1,2,"INSTR","yes","OBJ>PP",2,"below","PP>OBJ >> OBJ>PP","condition 1 >> condition 2",8396,355307,27,"test"
240,"t13_1_2","t13",1,2,"INSTR","yes","OBJ>PP",2,"above","OBJ>PP >> PP>OBJ","condition 2 >> condition 1",14134,207471,19,"test"
220,"t13_1_2","t13",1,2,"INSTR","yes","PP>OBJ",1,"above","PP>OBJ >> OBJ>PP","condition 1 >> condition 2",8972,489422,55,"test"
231,"t13_1_2","t13",1,2,"INSTR","yes","PP>OBJ",1,"below","OBJ>PP >> PP>OBJ","condition 2 >> condition 1",12371,113104,13,"test"
231,"t14_1_2","t14",1,2,"INSTR","yes","PP>OBJ",1,"below","OBJ>PP >> PP>OBJ","condition 2 >> condition 1",8690,242150,29,"test"
271,"t14_1_2","t14",1,2,"INSTR","yes","OBJ>PP",2,"below","PP>OBJ >> OBJ>PP","condition 1 >> condition 2",5947,236682,29,"test"
241,"t14_1_2","t14",1,2,"INSTR","yes","OBJ>PP",2,"above","OBJ>PP >> PP>OBJ","condition 2 >> condition 1",7534,283332,31,"test"
263,"t14_1_2","t14",1,2,"INSTR","yes","OBJ>PP",2,"below","PP>OBJ >> OBJ>PP","condition 1 >> condition 2",11846,453761,41,"test"
270,"t14_1_2","t14",1,2,"INSTR","yes","OBJ>PP",2,"below","PP>OBJ >> OBJ>PP","condition 1 >> condition 2",12118,358690,29,"test"
220,"t14_1_2","t14",1,2,"INSTR","yes","OBJ>PP",2,"above","OBJ>PP >> PP>OBJ","condition 2 >> condition 1",7070,550087,63,"test"
236,"t14_1_2","t14",1,2,"INSTR","yes","OBJ>PP",2,"below","PP>OBJ >> OBJ>PP","condition 1 >> condition 2",6653,751490,70,"test"
246,"t14_1_2","t14",1,2,"INSTR","yes","OBJ>PP",2,"below","PP>OBJ >> OBJ>PP","condition 1 >> condition 2",9954,545759,60,"test"
247,"t14_1_2","t14",1,2,"INSTR","yes","OBJ>PP",2,"below","PP>OBJ >> OBJ>PP","condition 1 >> condition 2",5993,564777,67,"test"
258,"t14_1_2","t14",1,2,"INSTR","yes","PP>OBJ",1,"above","PP>OBJ >> OBJ>PP","condition 1 >> condition 2",16839,350023,35,"test"
254,"t14_1_2","t14",1,2,"INSTR","yes","PP>OBJ",1,"above","PP>OBJ >> OBJ>PP","condition 1 >> condition 2",29091,284899,18,"test"
238,"t14_1_2","t14",1,2,"INSTR","yes","PP>OBJ",1,"below","OBJ>PP >> PP>OBJ","condition 2 >> condition 1",7880,393116,51,"test"
244,"t14_1_2","t14",1,2,"INSTR","yes","OBJ>PP",2,"above","OBJ>PP >> PP>OBJ","condition 2 >> condition 1",7239,307932,30,"test"
224,"t14_1_2","t14",1,2,"INSTR","yes","OBJ>PP",2,"below","PP>OBJ >> OBJ>PP","condition 1 >> condition 2",4387,460954,64,"test"
240,"t14_1_2","t14",1,2,"INSTR","yes","OBJ>PP",2,"below","PP>OBJ >> OBJ>PP","condition 1 >> condition 2",7431,185368,17,"test"
222,"t14_1_2","t14",1,2,"INSTR","yes","OBJ>PP",2,"above","OBJ>PP >> PP>OBJ","condition 2 >> condition 1",11257,244540,24,"test"
257,"t14_1_2","t14",1,2,"INSTR","yes","OBJ>PP",2,"below","PP>OBJ >> OBJ>PP","condition 1 >> condition 2",14421,589716,60,"test"
267,"t14_1_2","t14",1,2,"INSTR","yes","OBJ>PP",2,"above","OBJ>PP >> PP>OBJ","condition 2 >> condition 1",6569,711895,53,"test"
255,"t14_1_2","t14",1,2,"INSTR","yes","OBJ>PP",2,"above","OBJ>PP >> PP>OBJ","condition 2 >> condition 1",14671,336629,23,"test"
223,"t14_1_2","t14",1,2,"INSTR","yes","OBJ>PP",2,"above","OBJ>PP >> PP>OBJ","condition 2 >> condition 1",20806,431600,43,"test"
228,"t14_1_2","t14",1,2,"INSTR","yes","PP>OBJ",1,"below","OBJ>PP >> PP>OBJ","condition 2 >> condition 1",14133,77169,7,"test"
239,"t14_1_2","t14",1,2,"INSTR","yes","OBJ>PP",2,"below","PP>OBJ >> OBJ>PP","condition 1 >> condition 2",6401,536774,67,"test"
221,"t14_1_2","t14",1,2,"INSTR","yes","OBJ>PP",2,"below","PP>OBJ >> OBJ>PP","condition 1 >> condition 2",22248,152049,10,"test"
243,"t14_1_2","t14",1,2,"INSTR","yes","OBJ>PP",2,"above","OBJ>PP >> PP>OBJ","condition 2 >> condition 1",9384,189340,18,"test"
225,"t14_1_2","t14",1,2,"INSTR","yes","OBJ>PP",2,"above","OBJ>PP >> PP>OBJ","condition 2 >> condition 1",7836,423572,51,"test"
220,"t15_1_2","t15",1,2,"INSTR","yes","OBJ>PP",2,"below","PP>OBJ >> OBJ>PP","condition 1 >> condition 2",5143,414903,45,"test"
231,"t15_1_2","t15",1,2,"INSTR","yes","PP>OBJ",1,"below","OBJ>PP >> PP>OBJ","condition 2 >> condition 1",7246,254043,31,"test"
258,"t15_1_2","t15",1,2,"INSTR","yes","OBJ>PP",2,"above","OBJ>PP >> PP>OBJ","condition 2 >> condition 1",8005,524635,54,"test"
267,"t15_1_2","t15",1,2,"INSTR","yes","PP>OBJ",1,"above","PP>OBJ >> OBJ>PP","condition 1 >> condition 2",15533,487306,38,"test"
239,"t15_1_2","t15",1,2,"INSTR","yes","PP>OBJ",1,"below","OBJ>PP >> PP>OBJ","condition 2 >> condition 1",4890,451104,54,"test"
221,"t15_1_2","t15",1,2,"INSTR","yes","OBJ>PP",2,"below","PP>OBJ >> OBJ>PP","condition 1 >> condition 2",11679,256417,19,"test"
257,"t15_1_2","t15",1,2,"INSTR","yes","PP>OBJ",1,"above","PP>OBJ >> OBJ>PP","condition 1 >> condition 2",9539,539065,55,"test"
263,"t15_1_2","t15",1,2,"INSTR","yes","OBJ>PP",2,"above","OBJ>PP >> PP>OBJ","condition 2 >> condition 1",5455,576818,62,"test"
225,"t15_1_2","t15",1,2,"INSTR","yes","OBJ>PP",2,"above","OBJ>PP >> PP>OBJ","condition 2 >> condition 1",10755,357418,42,"test"
243,"t15_1_2","t15",1,2,"INSTR","yes","OBJ>PP",2,"below","PP>OBJ >> OBJ>PP","condition 1 >> condition 2",9390,95170,9,"test"
223,"t15_1_2","t15",1,2,"INSTR","yes","PP>OBJ",1,"above","PP>OBJ >> OBJ>PP","condition 1 >> condition 2",11060,533796,55,"test"
246,"t15_1_2","t15",1,2,"INSTR","yes","OBJ>PP",2,"below","PP>OBJ >> OBJ>PP","condition 1 >> condition 2",7375,433977,45,"test"
271,"t15_1_2","t15",1,2,"INSTR","yes","OBJ>PP",2,"below","PP>OBJ >> OBJ>PP","condition 1 >> condition 2",6318,307083,39,"test"
270,"t15_1_2","t15",1,2,"INSTR","yes","OBJ>PP",2,"above","OBJ>PP >> PP>OBJ","condition 2 >> condition 1",12048,612939,51,"test"
224,"t15_1_2","t15",1,2,"INSTR","yes","OBJ>PP",2,"above","OBJ>PP >> PP>OBJ","condition 2 >> condition 1",6187,342680,46,"test"
244,"t15_1_2","t15",1,2,"INSTR","yes","OBJ>PP",2,"below","PP>OBJ >> OBJ>PP","condition 1 >> condition 2",9890,594429,67,"test"
240,"t15_1_2","t15",1,2,"INSTR","yes","PP>OBJ",1,"above","PP>OBJ >> OBJ>PP","condition 1 >> condition 2",13599,412175,43,"test"
254,"t15_1_2","t15",1,2,"INSTR","yes","OBJ>PP",2,"below","PP>OBJ >> OBJ>PP","condition 1 >> condition 2",10607,573812,41,"test"
247,"t15_1_2","t15",1,2,"INSTR","yes","OBJ>PP",2,"below","PP>OBJ >> OBJ>PP","condition 1 >> condition 2",7564,371589,42,"test"
238,"t15_1_2","t15",1,2,"INSTR","yes","OBJ>PP",2,"above","OBJ>PP >> PP>OBJ","condition 2 >> condition 1",7110,243411,32,"test"
228,"t15_1_2","t15",1,2,"INSTR","yes","OBJ>PP",2,"below","PP>OBJ >> OBJ>PP","condition 1 >> condition 2",8366,567784,58,"test"
236,"t15_1_2","t15",1,2,"INSTR","yes","OBJ>PP",2,"above","OBJ>PP >> PP>OBJ","condition 2 >> condition 1",10965,444570,38,"test"
255,"t15_1_2","t15",1,2,"INSTR","yes","PP>OBJ",1,"below","OBJ>PP >> PP>OBJ","condition 2 >> condition 1",8474,309580,21,"test"
241,"t15_1_2","t15",1,2,"INSTR","yes","OBJ>PP",2,"above","OBJ>PP >> PP>OBJ","condition 2 >> condition 1",6097,433933,52,"test"
222,"t15_1_2","t15",1,2,"INSTR","yes","OBJ>PP",2,"below","PP>OBJ >> OBJ>PP","condition 1 >> condition 2",9177,314167,32,"test"
220,"t16_1_2","t16",1,2,"INSTR","yes","PP>OBJ",1,"above","PP>OBJ >> OBJ>PP","condition 1 >> condition 2",15062,334480,36,"test"
239,"t16_1_2","t16",1,2,"INSTR","yes","PP>OBJ",1,"below","OBJ>PP >> PP>OBJ","condition 2 >> condition 1",25428,101328,9,"test"
267,"t16_1_2","t16",1,2,"INSTR","yes","OBJ>PP",2,"below","PP>OBJ >> OBJ>PP","condition 1 >> condition 2",12257,238676,16,"test"
246,"t16_1_2","t16",1,2,"INSTR","yes","OBJ>PP",2,"below","PP>OBJ >> OBJ>PP","condition 1 >> condition 2",6668,486322,53,"test"
240,"t16_1_2","t16",1,2,"INSTR","yes","PP>OBJ",1,"below","OBJ>PP >> PP>OBJ","condition 2 >> condition 1",6030,568782,63,"test"
254,"t16_1_2","t16",1,2,"INSTR","yes","OBJ>PP",2,"below","PP>OBJ >> OBJ>PP","condition 1 >> condition 2",6255,718606,52,"test"
244,"t16_1_2","t16",1,2,"INSTR","yes","PP>OBJ",1,"above","PP>OBJ >> OBJ>PP","condition 1 >> condition 2",9333,416999,44,"test"
231,"t16_1_2","t16",1,2,"INSTR","yes","PP>OBJ",1,"above","PP>OBJ >> OBJ>PP","condition 1 >> condition 2",8226,291531,36,"test"
247,"t16_1_2","t16",1,2,"INSTR","yes","OBJ>PP",2,"above","OBJ>PP >> PP>OBJ","condition 2 >> condition 1",5047,289906,33,"test"
241,"t16_1_2","t16",1,2,"INSTR","yes","OBJ>PP",2,"above","OBJ>PP >> PP>OBJ","condition 2 >> condition 1",14061,158467,15,"test"
271,"t16_1_2","t16",1,2,"INSTR","yes","OBJ>PP",2,"below","PP>OBJ >> OBJ>PP","condition 1 >> condition 2",5518,182894,22,"test"
225,"t16_1_2","t16",1,2,"INSTR","yes","OBJ>PP",2,"above","OBJ>PP >> PP>OBJ","condition 2 >> condition 1",6384,563216,68,"test"
228,"t16_1_2","t16",1,2,"INSTR","yes","OBJ>PP",2,"above","OBJ>PP >> PP>OBJ","condition 2 >> condition 1",8884,360381,37,"test"
222,"t16_1_2","t16",1,2,"INSTR","yes","OBJ>PP",2,"above","OBJ>PP >> PP>OBJ","condition 2 >> condition 1",7797,468147,51,"test"
258,"t16_1_2","t16",1,2,"INSTR","yes","OBJ>PP",2,"below","PP>OBJ >> OBJ>PP","condition 1 >> condition 2",6242,451796,45,"test"
236,"t16_1_2","t16",1,2,"INSTR","yes","OBJ>PP",2,"above","OBJ>PP >> PP>OBJ","condition 2 >> condition 1",6454,624897,57,"test"
243,"t16_1_2","t16",1,2,"INSTR","yes","OBJ>PP",2,"below","PP>OBJ >> OBJ>PP","condition 1 >> condition 2",12202,686049,64,"test"
221,"t16_1_2","t16",1,2,"INSTR","yes","OBJ>PP",2,"below","PP>OBJ >> OBJ>PP","condition 1 >> condition 2",15403,217375,15,"test"
270,"t16_1_2","t16",1,2,"INSTR","yes","OBJ>PP",2,"above","OBJ>PP >> PP>OBJ","condition 2 >> condition 1",14362,244929,21,"test"
263,"t16_1_2","t16",1,2,"INSTR","yes","PP>OBJ",1,"above","PP>OBJ >> OBJ>PP","condition 1 >> condition 2",5713,606501,68,"test"
257,"t16_1_2","t16",1,2,"INSTR","yes","PP>OBJ",1,"below","OBJ>PP >> PP>OBJ","condition 2 >> condition 1",8951,449851,44,"test"
255,"t16_1_2","t16",1,2,"INSTR","yes","OBJ>PP",2,"above","OBJ>PP >> PP>OBJ","condition 2 >> condition 1",12591,609318,45,"test"
223,"t16_1_2","t16",1,2,"INSTR","yes","OBJ>PP",2,"below","PP>OBJ >> OBJ>PP","condition 1 >> condition 2",7095,599354,63,"test"
224,"t16_1_2","t16",1,2,"INSTR","yes","OBJ>PP",2,"below","PP>OBJ >> OBJ>PP","condition 1 >> condition 2",5662,428770,58,"test"
238,"t16_1_2","t16",1,2,"INSTR","yes","PP>OBJ",1,"below","OBJ>PP >> PP>OBJ","condition 2 >> condition 1",9272,310044,38,"test"
247,"t17_1_2","t17",1,2,"INSTR","yes","OBJ>PP",2,"below","PP>OBJ >> OBJ>PP","condition 1 >> condition 2",7605,170824,18,"test"
271,"t17_1_2","t17",1,2,"INSTR","yes","OBJ>PP",2,"below","PP>OBJ >> OBJ>PP","condition 1 >> condition 2",8033,272045,34,"test"
263,"t17_1_2","t17",1,2,"INSTR","yes","PP>OBJ",1,"above","PP>OBJ >> OBJ>PP","condition 1 >> condition 2",7739,321989,17,"test"
238,"t17_1_2","t17",1,2,"INSTR","yes","PP>OBJ",1,"above","PP>OBJ >> OBJ>PP","condition 1 >> condition 2",7581,173796,21,"test"
240,"t17_1_2","t17",1,2,"INSTR","yes","OBJ>PP",2,"below","PP>OBJ >> OBJ>PP","condition 1 >> condition 2",12207,394152,41,"test"
257,"t17_1_2","t17",1,2,"INSTR","yes","OBJ>PP",2,"below","PP>OBJ >> OBJ>PP","condition 1 >> condition 2",15919,71385,6,"test"
228,"t17_1_2","t17",1,2,"INSTR","yes","PP>OBJ",1,"below","OBJ>PP >> PP>OBJ","condition 2 >> condition 1",9047,595209,61,"test"
222,"t17_1_2","t17",1,2,"INSTR","yes","OBJ>PP",2,"above","OBJ>PP >> PP>OBJ","condition 2 >> condition 1",6635,616346,69,"test"
270,"t17_1_2","t17",1,2,"INSTR","yes","OBJ>PP",2,"above","OBJ>PP >> PP>OBJ","condition 2 >> condition 1",12147,439557,37,"test"
223,"t17_1_2","t17",1,2,"INSTR","yes","PP>OBJ",1,"below","OBJ>PP >> PP>OBJ","condition 2 >> condition 1",8456,344084,36,"test"
246,"t17_1_2","t17",1,2,"INSTR","yes","OBJ>PP",2,"above","OBJ>PP >> PP>OBJ","condition 2 >> condition 1",8401,246022,26,"test"
221,"t17_1_2","t17",1,2,"INSTR","yes","OBJ>PP",2,"above","OBJ>PP >> PP>OBJ","condition 2 >> condition 1",7732,421926,34,"test"
258,"t17_1_2","t17",1,2,"INSTR","yes","PP>OBJ",1,"above","PP>OBJ >> OBJ>PP","condition 1 >> condition 2",8248,82088,8,"test"
255,"t17_1_2","t17",1,2,"INSTR","yes","OBJ>PP",2,"above","OBJ>PP >> PP>OBJ","condition 2 >> condition 1",23191,671001,49,"test"
267,"t17_1_2","t17",1,2,"INSTR","yes","OBJ>PP",2,"above","OBJ>PP >> PP>OBJ","condition 2 >> condition 1",8234,314685,23,"test"
239,"t17_1_2","t17",1,2,"INSTR","yes","PP>OBJ",1,"below","OBJ>PP >> PP>OBJ","condition 2 >> condition 1",6785,304356,33,"test"
236,"t17_1_2","t17",1,2,"INSTR","yes","OBJ>PP",2,"below","PP>OBJ >> OBJ>PP","condition 1 >> condition 2",9584,352482,28,"test"
244,"t17_1_2","t17",1,2,"INSTR","yes","OBJ>PP",2,"above","OBJ>PP >> PP>OBJ","condition 2 >> condition 1",5464,497648,55,"test"
243,"t17_1_2","t17",1,2,"INSTR","yes","OBJ>PP",2,"above","OBJ>PP >> PP>OBJ","condition 2 >> condition 1",15524,386573,36,"test"
224,"t17_1_2","t17",1,2,"INSTR","yes","OBJ>PP",2,"above","OBJ>PP >> PP>OBJ","condition 2 >> condition 1",7076,489867,68,"test"
241,"t17_1_2","t17",1,2,"INSTR","yes","OBJ>PP",2,"below","PP>OBJ >> OBJ>PP","condition 1 >> condition 2",6599,134331,12,"test"
220,"t17_1_2","t17",1,2,"INSTR","yes","OBJ>PP",2,"below","PP>OBJ >> OBJ>PP","condition 1 >> condition 2",4007,498963,57,"test"
231,"t17_1_2","t17",1,2,"INSTR","yes","OBJ>PP",2,"below","PP>OBJ >> OBJ>PP","condition 1 >> condition 2",6096,542088,70,"test"
254,"t17_1_2","t17",1,2,"INSTR","yes","OBJ>PP",2,"above","OBJ>PP >> PP>OBJ","condition 2 >> condition 1",8924,742162,54,"test"
225,"t17_1_2","t17",1,2,"INSTR","yes","OBJ>PP",2,"above","OBJ>PP >> PP>OBJ","condition 2 >> condition 1",8298,444309,53,"test"
221,"t18_1_2","t18",1,2,"INSTR","yes","OBJ>PP",2,"above","OBJ>PP >> PP>OBJ","condition 2 >> condition 1",10069,341709,27,"test"
255,"t18_1_2","t18",1,2,"INSTR","yes","PP>OBJ",1,"below","OBJ>PP >> PP>OBJ","condition 2 >> condition 1",16098,122675,6,"test"
241,"t18_1_2","t18",1,2,"INSTR","yes","OBJ>PP",2,"below","PP>OBJ >> OBJ>PP","condition 1 >> condition 2",4773,468290,58,"test"
257,"t18_1_2","t18",1,2,"INSTR","yes","OBJ>PP",2,"above","OBJ>PP >> PP>OBJ","condition 2 >> condition 1",11437,558081,57,"test"
231,"t18_1_2","t18",1,2,"INSTR","yes","OBJ>PP",2,"below","PP>OBJ >> OBJ>PP","condition 1 >> condition 2",7088,213439,26,"test"
243,"t18_1_2","t18",1,2,"INSTR","yes","OBJ>PP",2,"below","PP>OBJ >> OBJ>PP","condition 1 >> condition 2",9788,605897,58,"test"
222,"t18_1_2","t18",1,2,"INSTR","yes","PP>OBJ",1,"below","OBJ>PP >> PP>OBJ","condition 2 >> condition 1",8505,481896,53,"test"
246,"t18_1_2","t18",1,2,"INSTR","yes","OBJ>PP",2,"above","OBJ>PP >> PP>OBJ","condition 2 >> condition 1",6171,507048,56,"test"
240,"t18_1_2","t18",1,2,"INSTR","yes","PP>OBJ",1,"below","OBJ>PP >> PP>OBJ","condition 2 >> condition 1",6982,613302,69,"test"
254,"t18_1_2","t18",1,2,"INSTR","yes","OBJ>PP",2,"below","PP>OBJ >> OBJ>PP","condition 1 >> condition 2",47595,628662,43,"test"
228,"t18_1_2","t18",1,2,"INSTR","yes","OBJ>PP",2,"above","OBJ>PP >> PP>OBJ","condition 2 >> condition 1",10084,535365,54,"test"
223,"t18_1_2","t18",1,2,"INSTR","yes","OBJ>PP",2,"above","OBJ>PP >> PP>OBJ","condition 2 >> condition 1",6478,451836,46,"test"
238,"t18_1_2","t18",1,2,"INSTR","yes","OBJ>PP",2,"below","PP>OBJ >> OBJ>PP","condition 1 >> condition 2",6631,436163,57,"test"
225,"t18_1_2","t18",1,2,"INSTR","yes","OBJ>PP",2,"below","PP>OBJ >> OBJ>PP","condition 1 >> condition 2",15520,232390,27,"test"
236,"t18_1_2","t18",1,2,"INSTR","yes","OBJ>PP",2,"below","PP>OBJ >> OBJ>PP","condition 1 >> condition 2",6415,427190,36,"test"
239,"t18_1_2","t18",1,2,"INSTR","yes","OBJ>PP",2,"below","PP>OBJ >> OBJ>PP","condition 1 >> condition 2",5541,406740,47,"test"
258,"t18_1_2","t18",1,2,"INSTR","yes","OBJ>PP",2,"above","OBJ>PP >> PP>OBJ","condition 2 >> condition 1",7561,267815,28,"test"
263,"t18_1_2","t18",1,2,"INSTR","yes","OBJ>PP",2,"above","OBJ>PP >> PP>OBJ","condition 2 >> condition 1",4675,585441,64,"test"
267,"t18_1_2","t18",1,2,"INSTR","yes","OBJ>PP",2,"above","OBJ>PP >> PP>OBJ","condition 2 >> condition 1",5959,781336,62,"test"
247,"t18_1_2","t18",1,2,"INSTR","yes","OBJ>PP",2,"below","PP>OBJ >> OBJ>PP","condition 1 >> condition 2",8028,405185,46,"test"
220,"t18_1_2","t18",1,2,"INSTR","yes","OBJ>PP",2,"below","PP>OBJ >> OBJ>PP","condition 1 >> condition 2",4962,438004,48,"test"
224,"t18_1_2","t18",1,2,"INSTR","yes","OBJ>PP",2,"above","OBJ>PP >> PP>OBJ","condition 2 >> condition 1",8933,207870,26,"test"
271,"t18_1_2","t18",1,2,"INSTR","yes","OBJ>PP",2,"above","OBJ>PP >> PP>OBJ","condition 2 >> condition 1",6733,319204,41,"test"
270,"t18_1_2","t18",1,2,"INSTR","yes","OBJ>PP",2,"above","OBJ>PP >> PP>OBJ","condition 2 >> condition 1",10612,461528,39,"test"
244,"t18_1_2","t18",1,2,"INSTR","yes","OBJ>PP",2,"below","PP>OBJ >> OBJ>PP","condition 1 >> condition 2",4408,525938,59,"test"
244,"t19_1_2","t19",1,2,"INSTR","no","OBJ>PP",2,"below","PP>OBJ >> OBJ>PP","condition 1 >> condition 2",6630,474489,52,"test"
228,"t19_1_2","t19",1,2,"INSTR","no","OBJ>PP",2,"below","PP>OBJ >> OBJ>PP","condition 1 >> condition 2",8136,226874,21,"test"
222,"t19_1_2","t19",1,2,"INSTR","no","OBJ>PP",2,"below","PP>OBJ >> OBJ>PP","condition 1 >> condition 2",13369,513597,56,"test"
231,"t19_1_2","t19",1,2,"INSTR","no","PP>OBJ",1,"below","OBJ>PP >> PP>OBJ","condition 2 >> condition 1",6959,528008,68,"test"
240,"t19_1_2","t19",1,2,"INSTR","no","OBJ>PP",2,"below","PP>OBJ >> OBJ>PP","condition 1 >> condition 2",24902,121487,10,"test"
243,"t19_1_2","t19",1,2,"INSTR","no","OBJ>PP",2,"below","PP>OBJ >> OBJ>PP","condition 1 >> condition 2",9648,489689,46,"test"
239,"t19_1_2","t19",1,2,"INSTR","no","PP>OBJ",1,"below","OBJ>PP >> PP>OBJ","condition 2 >> condition 1",10345,233216,23,"test"
254,"t19_1_2","t19",1,2,"INSTR","no","PP>OBJ",1,"above","PP>OBJ >> OBJ>PP","condition 1 >> condition 2",7165,249861,16,"test"
225,"t19_1_2","t19",1,2,"INSTR","no","OBJ>PP",2,"above","OBJ>PP >> PP>OBJ","condition 2 >> condition 1",10242,494663,60,"test"
236,"t19_1_2","t19",1,2,"INSTR","no","OBJ>PP",2,"above","OBJ>PP >> PP>OBJ","condition 2 >> condition 1",11231,498906,42,"test"
246,"t19_1_2","t19",1,2,"INSTR","no","PP>OBJ",1,"above","PP>OBJ >> OBJ>PP","condition 1 >> condition 2",10700,528189,58,"test"
223,"t19_1_2","t19",1,2,"INSTR","no","PP>OBJ",1,"above","PP>OBJ >> OBJ>PP","condition 1 >> condition 2",6217,582746,61,"test"
267,"t19_1_2","t19",1,2,"INSTR","no","OBJ>PP",2,"above","OBJ>PP >> PP>OBJ","condition 2 >> condition 1",16930,515836,40,"test"
271,"t19_1_2","t19",1,2,"INSTR","no","PP>OBJ",1,"below","OBJ>PP >> PP>OBJ","condition 2 >> condition 1",8133,405044,50,"test"
241,"t19_1_2","t19",1,2,"INSTR","no","PP>OBJ",1,"below","OBJ>PP >> PP>OBJ","condition 2 >> condition 1",4940,330409,37,"test"
221,"t19_1_2","t19",1,2,"INSTR","no","PP>OBJ",1,"below","OBJ>PP >> PP>OBJ","condition 2 >> condition 1",12709,630164,57,"test"
224,"t19_1_2","t19",1,2,"INSTR","no","OBJ>PP",2,"below","PP>OBJ >> OBJ>PP","condition 1 >> condition 2",4810,241718,32,"test"
238,"t19_1_2","t19",1,2,"INSTR","no","OBJ>PP",2,"above","OBJ>PP >> PP>OBJ","condition 2 >> condition 1",6831,507947,67,"test"
258,"t19_1_2","t19",1,2,"INSTR","no","OBJ>PP",2,"above","OBJ>PP >> PP>OBJ","condition 2 >> condition 1",9696,163933,19,"test"
270,"t19_1_2","t19",1,2,"INSTR","no","OBJ>PP",2,"above","OBJ>PP >> PP>OBJ","condition 2 >> condition 1",9865,688946,58,"test"
263,"t19_1_2","t19",1,2,"INSTR","no","OBJ>PP",2,"above","OBJ>PP >> PP>OBJ","condition 2 >> condition 1",4694,405685,33,"test"
220,"t19_1_2","t19",1,2,"INSTR","no","OBJ>PP",2,"above","OBJ>PP >> PP>OBJ","condition 2 >> condition 1",11216,88744,9,"test"
257,"t19_1_2","t19",1,2,"INSTR","no","PP>OBJ",1,"below","OBJ>PP >> PP>OBJ","condition 2 >> condition 1",7723,434192,42,"test"
247,"t19_1_2","t19",1,2,"INSTR","no","OBJ>PP",2,"above","OBJ>PP >> PP>OBJ","condition 2 >> condition 1",12319,334626,37,"test"
255,"t19_1_2","t19",1,2,"INSTR","no","PP>OBJ",1,"above","PP>OBJ >> OBJ>PP","condition 1 >> condition 2",10993,233128,15,"test"
247,"t20_1_2","t20",1,2,"INSTR","no","OBJ>PP",2,"above","OBJ>PP >> PP>OBJ","condition 2 >> condition 1",8508,474743,56,"test"
240,"t20_1_2","t20",1,2,"INSTR","no","PP>OBJ",1,"above","PP>OBJ >> OBJ>PP","condition 1 >> condition 2",11670,373776,39,"test"
225,"t20_1_2","t20",1,2,"INSTR","no","OBJ>PP",2,"below","PP>OBJ >> OBJ>PP","condition 1 >> condition 2",5697,175339,22,"test"
246,"t20_1_2","t20",1,2,"INSTR","no","PP>OBJ",1,"below","OBJ>PP >> PP>OBJ","condition 2 >> condition 1",5973,344472,35,"test"
222,"t20_1_2","t20",1,2,"INSTR","no","OBJ>PP",2,"above","OBJ>PP >> PP>OBJ","condition 2 >> condition 1",7681,406529,43,"test"
238,"t20_1_2","t20",1,2,"INSTR","no","OBJ>PP",2,"above","OBJ>PP >> PP>OBJ","condition 2 >> condition 1",6270,339380,43,"test"
243,"t20_1_2","t20",1,2,"INSTR","no","OBJ>PP",2,"above","OBJ>PP >> PP>OBJ","condition 2 >> condition 1",22959,135203,12,"test"
271,"t20_1_2","t20",1,2,"INSTR","no","OBJ>PP",2,"below","PP>OBJ >> OBJ>PP","condition 1 >> condition 2",8397,256442,32,"test"
257,"t20_1_2","t20",1,2,"INSTR","no","PP>OBJ",1,"below","OBJ>PP >> PP>OBJ","condition 2 >> condition 1",12052,220302,19,"test"
239,"t20_1_2","t20",1,2,"INSTR","no","OBJ>PP",2,"above","OBJ>PP >> PP>OBJ","condition 2 >> condition 1",9117,147535,14,"test"
263,"t20_1_2","t20",1,2,"INSTR","no","PP>OBJ",1,"above","PP>OBJ >> OBJ>PP","condition 1 >> condition 2",5340,467787,44,"test"
223,"t20_1_2","t20",1,2,"INSTR","no","PP>OBJ",1,"above","PP>OBJ >> OBJ>PP","condition 1 >> condition 2",10652,556380,58,"test"
231,"t20_1_2","t20",1,2,"INSTR","no","OBJ>PP",2,"above","OBJ>PP >> PP>OBJ","condition 2 >> condition 1",13810,425392,52,"test"
254,"t20_1_2","t20",1,2,"INSTR","no","OBJ>PP",2,"below","PP>OBJ >> OBJ>PP","condition 1 >> condition 2",8995,528410,37,"test"
224,"t20_1_2","t20",1,2,"INSTR","no","OBJ>PP",2,"above","OBJ>PP >> PP>OBJ","condition 2 >> condition 1",7300,74954,8,"test"
255,"t20_1_2","t20",1,2,"INSTR","no","PP>OBJ",1,"above","PP>OBJ >> OBJ>PP","condition 1 >> condition 2",13550,493909,34,"test"
220,"t20_1_2","t20",1,2,"INSTR","no","OBJ>PP",2,"below","PP>OBJ >> OBJ>PP","condition 1 >> condition 2",6218,354455,38,"test"
236,"t20_1_2","t20",1,2,"INSTR","no","OBJ>PP",2,"below","PP>OBJ >> OBJ>PP","condition 1 >> condition 2",7995,414546,34,"test"
244,"t20_1_2","t20",1,2,"INSTR","no","OBJ>PP",2,"above","OBJ>PP >> PP>OBJ","condition 2 >> condition 1",7664,341542,34,"test"
258,"t20_1_2","t20",1,2,"INSTR","no","PP>OBJ",1,"above","PP>OBJ >> OBJ>PP","condition 1 >> condition 2",7830,291306,30,"test"
267,"t20_1_2","t20",1,2,"INSTR","no","OBJ>PP",2,"below","PP>OBJ >> OBJ>PP","condition 1 >> condition 2",16284,858480,69,"test"
221,"t20_1_2","t20",1,2,"INSTR","no","PP>OBJ",1,"below","OBJ>PP >> PP>OBJ","condition 2 >> condition 1",10057,305440,23,"test"
270,"t20_1_2","t20",1,2,"INSTR","no","OBJ>PP",2,"above","OBJ>PP >> PP>OBJ","condition 2 >> condition 1",10923,326770,26,"test"
228,"t20_1_2","t20",1,2,"INSTR","no","OBJ>PP",2,"above","OBJ>PP >> PP>OBJ","condition 2 >> condition 1",14494,120246,11,"test"
241,"t20_1_2","t20",1,2,"INSTR","no","PP>OBJ",1,"above","PP>OBJ >> OBJ>PP","condition 1 >> condition 2",11723,354472,40,"test"
225,"t21_1_2","t21",1,2,"INSTR","no","PP>OBJ",1,"below","OBJ>PP >> PP>OBJ","condition 2 >> condition 1",8627,93061,12,"test"
224,"t21_1_2","t21",1,2,"INSTR","no","OBJ>PP",2,"below","PP>OBJ >> OBJ>PP","condition 1 >> condition 2",9890,384705,52,"test"
239,"t21_1_2","t21",1,2,"INSTR","no","PP>OBJ",1,"below","OBJ>PP >> PP>OBJ","condition 2 >> condition 1",9383,330829,37,"test"
231,"t21_1_2","t21",1,2,"INSTR","no","OBJ>PP",2,"above","OBJ>PP >> PP>OBJ","condition 2 >> condition 1",8825,95390,11,"test"
258,"t21_1_2","t21",1,2,"INSTR","no","OBJ>PP",2,"above","OBJ>PP >> PP>OBJ","condition 2 >> condition 1",9660,146415,17,"test"
223,"t21_1_2","t21",1,2,"INSTR","no","PP>OBJ",1,"above","PP>OBJ >> OBJ>PP","condition 1 >> condition 2",8158,397662,41,"test"
220,"t21_1_2","t21",1,2,"INSTR","no","OBJ>PP",2,"above","OBJ>PP >> PP>OBJ","condition 2 >> condition 1",6019,101551,11,"test"
228,"t21_1_2","t21",1,2,"INSTR","no","PP>OBJ",1,"below","OBJ>PP >> PP>OBJ","condition 2 >> condition 1",6201,299127,31,"test"
267,"t21_1_2","t21",1,2,"INSTR","no","OBJ>PP",2,"above","OBJ>PP >> PP>OBJ","condition 2 >> condition 1",8108,800814,64,"test"
247,"t21_1_2","t21",1,2,"INSTR","no","OBJ>PP",2,"below","PP>OBJ >> OBJ>PP","condition 1 >> condition 2",13538,81398,8,"test"
238,"t21_1_2","t21",1,2,"INSTR","no","OBJ>PP",2,"above","OBJ>PP >> PP>OBJ","condition 2 >> condition 1",13031,118236,14,"test"
271,"t21_1_2","t21",1,2,"INSTR","no","OBJ>PP",2,"above","OBJ>PP >> PP>OBJ","condition 2 >> condition 1",6467,386588,47,"test"
246,"t21_1_2","t21",1,2,"INSTR","no","PP>OBJ",1,"below","OBJ>PP >> PP>OBJ","condition 2 >> condition 1",10059,613892,68,"test"
240,"t21_1_2","t21",1,2,"INSTR","no","PP>OBJ",1,"below","OBJ>PP >> PP>OBJ","condition 2 >> condition 1",7423,440422,47,"test"
222,"t21_1_2","t21",1,2,"INSTR","no","OBJ>PP",2,"below","PP>OBJ >> OBJ>PP","condition 1 >> condition 2",5849,567671,63,"test"
241,"t21_1_2","t21",1,2,"INSTR","no","OBJ>PP",2,"above","OBJ>PP >> PP>OBJ","condition 2 >> condition 1",4680,391028,46,"test"
255,"t21_1_2","t21",1,2,"INSTR","no","OBJ>PP",2,"above","OBJ>PP >> PP>OBJ","condition 2 >> condition 1",7587,861356,66,"test"
236,"t21_1_2","t21",1,2,"INSTR","no","PP>OBJ",1,"below","OBJ>PP >> PP>OBJ","condition 2 >> condition 1",21654,199457,17,"test"
243,"t21_1_2","t21",1,2,"INSTR","no","OBJ>PP",2,"below","PP>OBJ >> OBJ>PP","condition 1 >> condition 2",7187,529543,51,"test"
270,"t21_1_2","t21",1,2,"INSTR","no","OBJ>PP",2,"above","OBJ>PP >> PP>OBJ","condition 2 >> condition 1",8673,386051,32,"test"
263,"t21_1_2","t21",1,2,"INSTR","no","OBJ>PP",2,"above","OBJ>PP >> PP>OBJ","condition 2 >> condition 1",3766,596292,66,"test"
254,"t21_1_2","t21",1,2,"INSTR","no","PP>OBJ",1,"below","OBJ>PP >> PP>OBJ","condition 2 >> condition 1",9991,661096,47,"test"
257,"t21_1_2","t21",1,2,"INSTR","no","PP>OBJ",1,"above","PP>OBJ >> OBJ>PP","condition 1 >> condition 2",11200,150916,13,"test"
221,"t21_1_2","t21",1,2,"INSTR","no","PP>OBJ",1,"above","PP>OBJ >> OBJ>PP","condition 1 >> condition 2",8367,702250,64,"test"
244,"t21_1_2","t21",1,2,"INSTR","no","PP>OBJ",1,"below","OBJ>PP >> PP>OBJ","condition 2 >> condition 1",10141,180401,18,"test"
257,"t22_1_2","t22",1,2,"INSTR","no","PP>OBJ",1,"below","OBJ>PP >> PP>OBJ","condition 2 >> condition 1",10352,630356,64,"test"
231,"t22_1_2","t22",1,2,"INSTR","no","OBJ>PP",2,"below","PP>OBJ >> OBJ>PP","condition 1 >> condition 2",7543,80916,9,"test"
270,"t22_1_2","t22",1,2,"INSTR","no","OBJ>PP",2,"above","OBJ>PP >> PP>OBJ","condition 2 >> condition 1",13076,788036,67,"test"
221,"t22_1_2","t22",1,2,"INSTR","no","OBJ>PP",2,"above","OBJ>PP >> PP>OBJ","condition 2 >> condition 1",11752,750626,69,"test"
246,"t22_1_2","t22",1,2,"INSTR","no","PP>OBJ",1,"above","PP>OBJ >> OBJ>PP","condition 1 >> condition 2",9611,581281,64,"test"
255,"t22_1_2","t22",1,2,"INSTR","no","PP>OBJ",1,"above","PP>OBJ >> OBJ>PP","condition 1 >> condition 2",13457,212452,13,"test"
263,"t22_1_2","t22",1,2,"INSTR","no","OBJ>PP",2,"below","PP>OBJ >> OBJ>PP","condition 1 >> condition 2",7300,389623,29,"test"
224,"t22_1_2","t22",1,2,"INSTR","no","OBJ>PP",2,"below","PP>OBJ >> OBJ>PP","condition 1 >> condition 2",5146,316986,42,"test"
247,"t22_1_2","t22",1,2,"INSTR","no","OBJ>PP",2,"above","OBJ>PP >> PP>OBJ","condition 2 >> condition 1",9325,441044,51,"test"
267,"t22_1_2","t22",1,2,"INSTR","no","OBJ>PP",2,"below","PP>OBJ >> OBJ>PP","condition 1 >> condition 2",27317,135727,8,"test"
236,"t22_1_2","t22",1,2,"INSTR","no","PP>OBJ",1,"above","PP>OBJ >> OBJ>PP","condition 1 >> condition 2",9610,134060,12,"test"
228,"t22_1_2","t22",1,2,"INSTR","no","OBJ>PP",2,"below","PP>OBJ >> OBJ>PP","condition 1 >> condition 2",18273,402657,40,"test"
240,"t22_1_2","t22",1,2,"INSTR","no","PP>OBJ",1,"above","PP>OBJ >> OBJ>PP","condition 1 >> condition 2",10086,224648,21,"test"
225,"t22_1_2","t22",1,2,"INSTR","no","OBJ>PP",2,"below","PP>OBJ >> OBJ>PP","condition 1 >> condition 2",6188,472204,57,"test"
271,"t22_1_2","t22",1,2,"INSTR","no","OBJ>PP",2,"below","PP>OBJ >> OBJ>PP","condition 1 >> condition 2",6322,442733,56,"test"
258,"t22_1_2","t22",1,2,"INSTR","no","OBJ>PP",2,"above","OBJ>PP >> PP>OBJ","condition 2 >> condition 1",10182,469239,47,"test"
223,"t22_1_2","t22",1,2,"INSTR","no","OBJ>PP",2,"below","PP>OBJ >> OBJ>PP","condition 1 >> condition 2",16170,256251,27,"test"
222,"t22_1_2","t22",1,2,"INSTR","no","OBJ>PP",2,"above","OBJ>PP >> PP>OBJ","condition 2 >> condition 1",11081,344751,35,"test"
239,"t22_1_2","t22",1,2,"INSTR","no","PP>OBJ",1,"below","OBJ>PP >> PP>OBJ","condition 2 >> condition 1",4549,524609,65,"test"
243,"t22_1_2","t22",1,2,"INSTR","no","OBJ>PP",2,"above","OBJ>PP >> PP>OBJ","condition 2 >> condition 1",8351,726907,69,"test"
220,"t22_1_2","t22",1,2,"INSTR","no","OBJ>PP",2,"below","PP>OBJ >> OBJ>PP","condition 1 >> condition 2",4712,242081,27,"test"
254,"t22_1_2","t22",1,2,"INSTR","no","OBJ>PP",2,"below","PP>OBJ >> OBJ>PP","condition 1 >> condition 2",27803,831290,60,"test"
238,"t22_1_2","t22",1,2,"INSTR","no","OBJ>PP",2,"above","OBJ>PP >> PP>OBJ","condition 2 >> condition 1",7422,382164,49,"test"
241,"t22_1_2","t22",1,2,"INSTR","no","OBJ>PP",2,"below","PP>OBJ >> OBJ>PP","condition 1 >> condition 2",5105,485547,61,"test"
244,"t22_1_2","t22",1,2,"INSTR","no","OBJ>PP",2,"above","OBJ>PP >> PP>OBJ","condition 2 >> condition 1",8856,283514,28,"test"
240,"t23_1_2","t23",1,2,"INSTR","no","PP>OBJ",1,"below","OBJ>PP >> PP>OBJ","condition 2 >> condition 1",9222,462774,50,"test"
225,"t23_1_2","t23",1,2,"INSTR","no","OBJ>PP",2,"below","PP>OBJ >> OBJ>PP","condition 1 >> condition 2",14080,140722,16,"test"
238,"t23_1_2","t23",1,2,"INSTR","no","PP>OBJ",1,"below","OBJ>PP >> PP>OBJ","condition 2 >> condition 1",9295,421980,55,"test"
220,"t23_1_2","t23",1,2,"INSTR","no","OBJ>PP",2,"below","PP>OBJ >> OBJ>PP","condition 1 >> condition 2",7045,123022,14,"test"
247,"t23_1_2","t23",1,2,"INSTR","no","OBJ>PP",2,"above","OBJ>PP >> PP>OBJ","condition 2 >> condition 1",7405,583364,70,"test"
228,"t23_1_2","t23",1,2,"INSTR","no","PP>OBJ",1,"below","OBJ>PP >> PP>OBJ","condition 2 >> condition 1",7967,259189,25,"test"
223,"t23_1_2","t23",1,2,"INSTR","no","OBJ>PP",2,"above","OBJ>PP >> PP>OBJ","condition 2 >> condition 1",6376,510018,52,"test"
267,"t23_1_2","t23",1,2,"INSTR","no","OBJ>PP",2,"above","OBJ>PP >> PP>OBJ","condition 2 >> condition 1",12432,375863,29,"test"
271,"t23_1_2","t23",1,2,"INSTR","no","OBJ>PP",2,"above","OBJ>PP >> PP>OBJ","condition 2 >> condition 1",6969,467072,60,"test"
231,"t23_1_2","t23",1,2,"INSTR","no","OBJ>PP",2,"below","PP>OBJ >> OBJ>PP","condition 1 >> condition 2",7396,176215,21,"test"
224,"t23_1_2","t23",1,2,"INSTR","no","OBJ>PP",2,"above","OBJ>PP >> PP>OBJ","condition 2 >> condition 1",9100,137182,16,"test"
241,"t23_1_2","t23",1,2,"INSTR","no","OBJ>PP",2,"above","OBJ>PP >> PP>OBJ","condition 2 >> condition 1",10193,520421,66,"test"
221,"t23_1_2","t23",1,2,"INSTR","no","PP>OBJ",1,"below","OBJ>PP >> PP>OBJ","condition 2 >> condition 1",9610,325181,25,"test"
244,"t23_1_2","t23",1,2,"INSTR","no","OBJ>PP",2,"above","OBJ>PP >> PP>OBJ","condition 2 >> condition 1",9735,402527,42,"test"
243,"t23_1_2","t23",1,2,"INSTR","no","OBJ>PP",2,"above","OBJ>PP >> PP>OBJ","condition 2 >> condition 1",14086,171960,16,"test"
222,"t23_1_2","t23",1,2,"INSTR","no","PP>OBJ",1,"above","PP>OBJ >> OBJ>PP","condition 1 >> condition 2",7816,223727,22,"test"
255,"t23_1_2","t23",1,2,"INSTR","no","PP>OBJ",1,"below","OBJ>PP >> PP>OBJ","condition 2 >> condition 1",18965,151774,8,"test"
257,"t23_1_2","t23",1,2,"INSTR","no","PP>OBJ",1,"above","PP>OBJ >> OBJ>PP","condition 1 >> condition 2",15010,243096,21,"test"
236,"t23_1_2","t23",1,2,"INSTR","no","OBJ>PP",2,"below","PP>OBJ >> OBJ>PP","condition 1 >> condition 2",11046,167680,15,"test"
254,"t23_1_2","t23",1,2,"INSTR","no","PP>OBJ",1,"below","OBJ>PP >> PP>OBJ","condition 2 >> condition 1",7071,463616,30,"test"
263,"t23_1_2","t23",1,2,"INSTR","no","OBJ>PP",2,"above","OBJ>PP >> PP>OBJ","condition 2 >> condition 1",5799,617742,70,"test"
239,"t23_1_2","t23",1,2,"INSTR","no","PP>OBJ",1,"below","OBJ>PP >> PP>OBJ","condition 2 >> condition 1",7370,315664,35,"test"
246,"t23_1_2","t23",1,2,"INSTR","no","OBJ>PP",2,"below","PP>OBJ >> OBJ>PP","condition 1 >> condition 2",6931,454335,48,"test"
270,"t23_1_2","t23",1,2,"INSTR","no","OBJ>PP",2,"below","PP>OBJ >> OBJ>PP","condition 1 >> condition 2",11181,187719,16,"test"
258,"t23_1_2","t23",1,2,"INSTR","no","PP>OBJ",1,"above","PP>OBJ >> OBJ>PP","condition 1 >> condition 2",15099,319388,32,"test"
244,"t24_1_2","t24",1,2,"INSTR","no","OBJ>PP",2,"below","PP>OBJ >> OBJ>PP","condition 1 >> condition 2",8808,440464,47,"test"
243,"t24_1_2","t24",1,2,"INSTR","no","OBJ>PP",2,"below","PP>OBJ >> OBJ>PP","condition 1 >> condition 2",10486,238992,22,"test"
224,"t24_1_2","t24",1,2,"INSTR","no","OBJ>PP",2,"below","PP>OBJ >> OBJ>PP","condition 1 >> condition 2",5992,123347,14,"test"
270,"t24_1_2","t24",1,2,"INSTR","no","OBJ>PP",2,"above","OBJ>PP >> PP>OBJ","condition 2 >> condition 1",8752,281688,23,"test"
263,"t24_1_2","t24",1,2,"INSTR","no","PP>OBJ",1,"above","PP>OBJ >> OBJ>PP","condition 1 >> condition 2",7483,563308,60,"test"
239,"t24_1_2","t24",1,2,"INSTR","no","PP>OBJ",1,"below","OBJ>PP >> PP>OBJ","condition 2 >> condition 1",3805,498334,60,"test"
240,"t24_1_2","t24",1,2,"INSTR","no","PP>OBJ",1,"above","PP>OBJ >> OBJ>PP","condition 1 >> condition 2",8854,152830,13,"test"
221,"t24_1_2","t24",1,2,"INSTR","no","PP>OBJ",1,"above","PP>OBJ >> OBJ>PP","condition 1 >> condition 2",19023,679102,61,"test"
258,"t24_1_2","t24",1,2,"INSTR","no","OBJ>PP",2,"above","OBJ>PP >> PP>OBJ","condition 2 >> condition 1",12874,492814,50,"test"
271,"t24_1_2","t24",1,2,"INSTR","no","PP>OBJ",1,"below","OBJ>PP >> PP>OBJ","condition 2 >> condition 1",6684,506090,66,"test"
222,"t24_1_2","t24",1,2,"INSTR","no","OBJ>PP",2,"above","OBJ>PP >> PP>OBJ","condition 2 >> condition 1",7031,367810,38,"test"
225,"t24_1_2","t24",1,2,"INSTR","no","PP>OBJ",1,"below","OBJ>PP >> PP>OBJ","condition 2 >> condition 1",6432,156522,19,"test"
247,"t24_1_2","t24",1,2,"INSTR","no","OBJ>PP",2,"below","PP>OBJ >> OBJ>PP","condition 1 >> condition 2",7983,357173,40,"test"
228,"t24_1_2","t24",1,2,"INSTR","no","OBJ>PP",2,"below","PP>OBJ >> OBJ>PP","condition 1 >> condition 2",9283,94933,9,"test"
236,"t24_1_2","t24",1,2,"INSTR","no","OBJ>PP",2,"below","PP>OBJ >> OBJ>PP","condition 1 >> condition 2",20184,245848,20,"test"
246,"t24_1_2","t24",1,2,"INSTR","no","OBJ>PP",2,"above","OBJ>PP >> PP>OBJ","condition 2 >> condition 1",7000,189648,19,"test"
223,"t24_1_2","t24",1,2,"INSTR","no","PP>OBJ",1,"below","OBJ>PP >> PP>OBJ","condition 2 >> condition 1",10395,151298,15,"test"
254,"t24_1_2","t24",1,2,"INSTR","no","PP>OBJ",1,"below","OBJ>PP >> PP>OBJ","condition 2 >> condition 1",11939,698462,50,"test"
231,"t24_1_2","t24",1,2,"INSTR","no","OBJ>PP",2,"above","OBJ>PP >> PP>OBJ","condition 2 >> condition 1",7246,312817,38,"test"
257,"t24_1_2","t24",1,2,"INSTR","no","OBJ>PP",2,"above","OBJ>PP >> PP>OBJ","condition 2 >> condition 1",8395,379913,35,"test"
267,"t24_1_2","t24",1,2,"INSTR","no","OBJ>PP",2,"below","PP>OBJ >> OBJ>PP","condition 1 >> condition 2",9954,396168,31,"test"
238,"t24_1_2","t24",1,2,"INSTR","no","OBJ>PP",2,"above","OBJ>PP >> PP>OBJ","condition 2 >> condition 1",6902,322348,40,"test"
220,"t24_1_2","t24",1,2,"INSTR","no","OBJ>PP",2,"above","OBJ>PP >> PP>OBJ","condition 2 >> condition 1",9176,222163,24,"test"
241,"t24_1_2","t24",1,2,"INSTR","no","OBJ>PP",2,"below","PP>OBJ >> OBJ>PP","condition 1 >> condition 2",9063,448489,54,"test"
255,"t24_1_2","t24",1,2,"INSTR","no","PP>OBJ",1,"above","PP>OBJ >> OBJ>PP","condition 1 >> condition 2",12487,430152,29,"test"
