"workerId","itemId","CONDITION_NO","ENCODING","ADVERBIAL_TYPE","KEY_CONDITION","ANSWER","ANSWER_LABEL","rt","time_elapsed","trial_index","ITEM_FUNCTION"
169,"t01_1",1,"t01","INSTR","PP>OBJ",5,"vollkommen natürlich",4810,362859,59,"test"
156,"t01_1",1,"t01","INSTR","PP>OBJ",4,"eher natürlich",9282,948377,96,"test"
134,"t01_1",1,"t01","INSTR","PP>OBJ",4,"eher natürlich",6769,540642,69,"test"
196,"t01_1",1,"t01","INSTR","PP>OBJ",5,"vollkommen natürlich",4556,241965,41,"test"
165,"t01_1",1,"t01","INSTR","PP>OBJ",4,"eher natürlich",5569,429981,58,"test"
184,"t01_1",1,"t01","INSTR","PP>OBJ",2,"eher unnatürlich",7131,850685,93,"test"
182,"t01_1",1,"t01","INSTR","PP>OBJ",4,"eher natürlich",8309,825859,86,"test"
135,"t01_1",1,"t01","INSTR","PP>OBJ",4,"eher natürlich",7277,588008,74,"test"
163,"t01_1",1,"t01","INSTR","PP>OBJ",3,"keine Tendenz",7145,294074,39,"test"
133,"t01_1",1,"t01","INSTR","PP>OBJ",3,"keine Tendenz",16133,821542,65,"test"
166,"t01_1",1,"t01","INSTR","PP>OBJ",4,"eher natürlich",7823,468411,69,"test"
190,"t01_1",1,"t01","INSTR","PP>OBJ",2,"eher unnatürlich",17021,196924,26,"test"
151,"t01_1",1,"t01","INSTR","PP>OBJ",2,"eher unnatürlich",8865,875063,104,"test"
162,"t01_1",1,"t01","INSTR","PP>OBJ",4,"eher natürlich",10536,145856,13,"test"
157,"t01_1",1,"t01","INSTR","PP>OBJ",4,"eher natürlich",5692,627892,61,"test"
176,"t01_1",1,"t01","INSTR","PP>OBJ",2,"eher unnatürlich",4223,559838,64,"test"
161,"t01_1",1,"t01","INSTR","PP>OBJ",4,"eher natürlich",15443,555572,51,"test"
149,"t01_1",1,"t01","INSTR","PP>OBJ",4,"eher natürlich",9778,685315,44,"test"
215,"t01_2",2,"t01","INSTR","OBJ>PP",5,"vollkommen natürlich",6930,225894,29,"test"
197,"t01_2",2,"t01","INSTR","OBJ>PP",5,"vollkommen natürlich",8656,1027088,89,"test"
200,"t01_2",2,"t01","INSTR","OBJ>PP",5,"vollkommen natürlich",18541,791470,68,"test"
210,"t01_2",2,"t01","INSTR","OBJ>PP",4,"eher natürlich",11630,606638,52,"test"
206,"t01_2",2,"t01","INSTR","OBJ>PP",4,"eher natürlich",13840,392373,40,"test"
136,"t01_2",2,"t01","INSTR","OBJ>PP",2,"eher unnatürlich",7278,341315,38,"test"
199,"t01_2",2,"t01","INSTR","OBJ>PP",4,"eher natürlich",19022,535389,39,"test"
183,"t01_2",2,"t01","INSTR","OBJ>PP",5,"vollkommen natürlich",7124,807592,56,"test"
168,"t01_2",2,"t01","INSTR","OBJ>PP",4,"eher natürlich",5895,805437,89,"test"
179,"t01_2",2,"t01","INSTR","OBJ>PP",4,"eher natürlich",9671,154530,16,"test"
167,"t01_2",2,"t01","INSTR","OBJ>PP",4,"eher natürlich",9101,887686,100,"test"
128,"t01_2",2,"t01","INSTR","OBJ>PP",4,"eher natürlich",8239,605673,52,"test"
187,"t01_2",2,"t01","INSTR","OBJ>PP",4,"eher natürlich",5171,115533,15,"test"
213,"t01_2",2,"t01","INSTR","OBJ>PP",4,"eher natürlich",9659,1178522,102,"test"
185,"t01_2",2,"t01","INSTR","OBJ>PP",5,"vollkommen natürlich",9363,290455,33,"test"
201,"t01_2",2,"t01","INSTR","OBJ>PP",4,"eher natürlich",10197,698905,88,"test"
203,"t01_2",2,"t01","INSTR","OBJ>PP",5,"vollkommen natürlich",5261,692068,66,"test"
189,"t01_2",2,"t01","INSTR","OBJ>PP",4,"eher natürlich",14557,381261,31,"test"
189,"t02_1",1,"t02","INSTR","PP>OBJ",2,"eher unnatürlich",8668,615093,54,"test"
187,"t02_1",1,"t02","INSTR","PP>OBJ",5,"vollkommen natürlich",9460,801517,101,"test"
213,"t02_1",1,"t02","INSTR","PP>OBJ",3,"keine Tendenz",11078,626491,52,"test"
167,"t02_1",1,"t02","INSTR","PP>OBJ",2,"eher unnatürlich",9784,149007,14,"test"
206,"t02_1",1,"t02","INSTR","PP>OBJ",4,"eher natürlich",6438,639859,69,"test"
179,"t02_1",1,"t02","INSTR","PP>OBJ",4,"eher natürlich",11161,81403,7,"test"
199,"t02_1",1,"t02","INSTR","PP>OBJ",5,"vollkommen natürlich",12927,370133,26,"test"
215,"t02_1",1,"t02","INSTR","PP>OBJ",5,"vollkommen natürlich",7566,373152,47,"test"
203,"t02_1",1,"t02","INSTR","PP>OBJ",5,"vollkommen natürlich",4618,800513,86,"test"
185,"t02_1",1,"t02","INSTR","PP>OBJ",4,"eher natürlich",9593,340140,38,"test"
201,"t02_1",1,"t02","INSTR","PP>OBJ",4,"eher natürlich",12591,741264,93,"test"
210,"t02_1",1,"t02","INSTR","PP>OBJ",5,"vollkommen natürlich",18045,1216659,106,"test"
168,"t02_1",1,"t02","INSTR","PP>OBJ",4,"eher natürlich",6130,713158,75,"test"
197,"t02_1",1,"t02","INSTR","PP>OBJ",5,"vollkommen natürlich",12553,773262,62,"test"
136,"t02_1",1,"t02","INSTR","PP>OBJ",4,"eher natürlich",7808,772342,89,"test"
128,"t02_1",1,"t02","INSTR","PP>OBJ",4,"eher natürlich",7458,695573,60,"test"
183,"t02_1",1,"t02","INSTR","PP>OBJ",4,"eher natürlich",9422,453933,29,"test"
200,"t02_1",1,"t02","INSTR","PP>OBJ",4,"eher natürlich",12143,436646,38,"test"
190,"t02_2",2,"t02","INSTR","OBJ>PP",3,"keine Tendenz",6821,53374,7,"test"
135,"t02_2",2,"t02","INSTR","OBJ>PP",2,"eher unnatürlich",9271,615772,77,"test"
134,"t02_2",2,"t02","INSTR","OBJ>PP",5,"vollkommen natürlich",5410,721477,95,"test"
157,"t02_2",2,"t02","INSTR","OBJ>PP",4,"eher natürlich",5060,376632,35,"test"
162,"t02_2",2,"t02","INSTR","OBJ>PP",5,"vollkommen natürlich",10699,440037,45,"test"
161,"t02_2",2,"t02","INSTR","OBJ>PP",5,"vollkommen natürlich",14942,897029,78,"test"
176,"t02_2",2,"t02","INSTR","OBJ>PP",5,"vollkommen natürlich",5563,191766,17,"test"
196,"t02_2",2,"t02","INSTR","OBJ>PP",4,"eher natürlich",3903,490097,86,"test"
165,"t02_2",2,"t02","INSTR","OBJ>PP",4,"eher natürlich",6415,647989,95,"test"
133,"t02_2",2,"t02","INSTR","OBJ>PP",4,"eher natürlich",15232,883809,71,"test"
156,"t02_2",2,"t02","INSTR","OBJ>PP",4,"eher natürlich",10326,320133,25,"test"
163,"t02_2",2,"t02","INSTR","OBJ>PP",2,"eher unnatürlich",4916,148827,19,"test"
184,"t02_2",2,"t02","INSTR","OBJ>PP",4,"eher natürlich",9846,112552,9,"test"
182,"t02_2",2,"t02","INSTR","OBJ>PP",5,"vollkommen natürlich",28560,1021190,99,"test"
149,"t02_2",2,"t02","INSTR","OBJ>PP",5,"vollkommen natürlich",8604,874482,59,"test"
169,"t02_2",2,"t02","INSTR","OBJ>PP",5,"vollkommen natürlich",5575,75045,8,"test"
166,"t02_2",2,"t02","INSTR","OBJ>PP",5,"vollkommen natürlich",3485,282685,48,"test"
151,"t02_2",2,"t02","INSTR","OBJ>PP",4,"eher natürlich",7221,547096,66,"test"
165,"t03_1",1,"t03","INSTR","PP>OBJ",4,"eher natürlich",5996,267656,31,"test"
133,"t03_1",1,"t03","INSTR","PP>OBJ",3,"keine Tendenz",19177,1230715,102,"test"
135,"t03_1",1,"t03","INSTR","PP>OBJ",2,"eher unnatürlich",7300,365721,46,"test"
176,"t03_1",1,"t03","INSTR","PP>OBJ",2,"eher unnatürlich",17669,308270,29,"test"
182,"t03_1",1,"t03","INSTR","PP>OBJ",4,"eher natürlich",6862,318102,29,"test"
151,"t03_1",1,"t03","INSTR","PP>OBJ",4,"eher natürlich",10663,596320,72,"test"
161,"t03_1",1,"t03","INSTR","PP>OBJ",4,"eher natürlich",12912,1192397,100,"test"
196,"t03_1",1,"t03","INSTR","PP>OBJ",4,"eher natürlich",24962,456723,79,"test"
162,"t03_1",1,"t03","INSTR","PP>OBJ",5,"vollkommen natürlich",5948,671185,75,"test"
166,"t03_1",1,"t03","INSTR","PP>OBJ",5,"vollkommen natürlich",4523,198508,32,"test"
184,"t03_1",1,"t03","INSTR","PP>OBJ",4,"eher natürlich",10387,300512,25,"test"
163,"t03_1",1,"t03","INSTR","PP>OBJ",3,"keine Tendenz",8573,533364,74,"test"
190,"t03_1",1,"t03","INSTR","PP>OBJ",1,"vollkommen unnatürlich",6295,173924,24,"test"
149,"t03_1",1,"t03","INSTR","PP>OBJ",4,"eher natürlich",6179,349369,15,"test"
157,"t03_1",1,"t03","INSTR","PP>OBJ",4,"eher natürlich",7355,690237,71,"test"
169,"t03_1",1,"t03","INSTR","PP>OBJ",4,"eher natürlich",5983,164727,23,"test"
134,"t03_1",1,"t03","INSTR","PP>OBJ",2,"eher unnatürlich",7922,323644,42,"test"
156,"t03_1",1,"t03","INSTR","PP>OBJ",2,"eher unnatürlich",4615,673623,63,"test"
179,"t03_2",2,"t03","INSTR","OBJ>PP",5,"vollkommen natürlich",11612,347372,38,"test"
136,"t03_2",2,"t03","INSTR","OBJ>PP",4,"eher natürlich",7009,885370,104,"test"
213,"t03_2",2,"t03","INSTR","OBJ>PP",4,"eher natürlich",20987,121054,8,"test"
203,"t03_2",2,"t03","INSTR","OBJ>PP",5,"vollkommen natürlich",16743,899131,101,"test"
183,"t03_2",2,"t03","INSTR","OBJ>PP",4,"eher natürlich",7576,494915,32,"test"
210,"t03_2",2,"t03","INSTR","OBJ>PP",5,"vollkommen natürlich",12580,505173,43,"test"
185,"t03_2",2,"t03","INSTR","OBJ>PP",4,"eher natürlich",6104,450908,52,"test"
206,"t03_2",2,"t03","INSTR","OBJ>PP",5,"vollkommen natürlich",4432,321063,32,"test"
215,"t03_2",2,"t03","INSTR","OBJ>PP",5,"vollkommen natürlich",6356,528627,65,"test"
189,"t03_2",2,"t03","INSTR","OBJ>PP",4,"eher natürlich",7188,893573,89,"test"
168,"t03_2",2,"t03","INSTR","OBJ>PP",5,"vollkommen natürlich",9241,928036,104,"test"
199,"t03_2",2,"t03","INSTR","OBJ>PP",4,"eher natürlich",11135,306509,22,"test"
201,"t03_2",2,"t03","INSTR","OBJ>PP",4,"eher natürlich",9531,164231,19,"test"
197,"t03_2",2,"t03","INSTR","OBJ>PP",5,"vollkommen natürlich",8284,843039,69,"test"
128,"t03_2",2,"t03","INSTR","OBJ>PP",4,"eher natürlich",9716,1052236,93,"test"
200,"t03_2",2,"t03","INSTR","OBJ>PP",5,"vollkommen natürlich",9678,366247,31,"test"
167,"t03_2",2,"t03","INSTR","OBJ>PP",4,"eher natürlich",10074,529641,56,"test"
187,"t03_2",2,"t03","INSTR","OBJ>PP",4,"eher natürlich",9768,87333,10,"test"
203,"t04_1",1,"t04","INSTR","PP>OBJ",5,"vollkommen natürlich",3359,742336,76,"test"
197,"t04_1",1,"t04","INSTR","PP>OBJ",5,"vollkommen natürlich",4936,637107,48,"test"
200,"t04_1",1,"t04","INSTR","PP>OBJ",5,"vollkommen natürlich",5934,625134,54,"test"
189,"t04_1",1,"t04","INSTR","PP>OBJ",4,"eher natürlich",6235,628789,56,"test"
185,"t04_1",1,"t04","INSTR","PP>OBJ",4,"eher natürlich",4800,407978,48,"test"
215,"t04_1",1,"t04","INSTR","PP>OBJ",5,"vollkommen natürlich",4958,812605,105,"test"
210,"t04_1",1,"t04","INSTR","PP>OBJ",4,"eher natürlich",7158,367717,30,"test"
187,"t04_1",1,"t04","INSTR","PP>OBJ",5,"vollkommen natürlich",7677,630699,79,"test"
179,"t04_1",1,"t04","INSTR","PP>OBJ",5,"vollkommen natürlich",5495,845927,100,"test"
183,"t04_1",1,"t04","INSTR","PP>OBJ",3,"keine Tendenz",8109,323589,21,"test"
167,"t04_1",1,"t04","INSTR","PP>OBJ",3,"keine Tendenz",7650,581944,62,"test"
199,"t04_1",1,"t04","INSTR","PP>OBJ",4,"eher natürlich",15223,83782,6,"test"
128,"t04_1",1,"t04","INSTR","PP>OBJ",5,"vollkommen natürlich",10011,140756,12,"test"
136,"t04_1",1,"t04","INSTR","PP>OBJ",5,"vollkommen natürlich",6323,685198,78,"test"
213,"t04_1",1,"t04","INSTR","PP>OBJ",4,"eher natürlich",8378,777640,67,"test"
201,"t04_1",1,"t04","INSTR","PP>OBJ",5,"vollkommen natürlich",7461,56519,6,"test"
168,"t04_1",1,"t04","INSTR","PP>OBJ",5,"vollkommen natürlich",5869,302911,31,"test"
206,"t04_1",1,"t04","INSTR","PP>OBJ",4,"eher natürlich",4906,830311,95,"test"
163,"t04_2",2,"t04","INSTR","OBJ>PP",4,"eher natürlich",7770,592357,83,"test"
133,"t04_2",2,"t04","INSTR","OBJ>PP",5,"vollkommen natürlich",5972,1097961,90,"test"
190,"t04_2",2,"t04","INSTR","OBJ>PP",4,"eher natürlich",7084,562762,80,"test"
149,"t04_2",2,"t04","INSTR","OBJ>PP",2,"eher unnatürlich",64103,789643,49,"test"
182,"t04_2",2,"t04","INSTR","OBJ>PP",5,"vollkommen natürlich",8126,157484,14,"test"
166,"t04_2",2,"t04","INSTR","OBJ>PP",5,"vollkommen natürlich",6268,368734,60,"test"
162,"t04_2",2,"t04","INSTR","OBJ>PP",5,"vollkommen natürlich",5495,328201,33,"test"
161,"t04_2",2,"t04","INSTR","OBJ>PP",5,"vollkommen natürlich",7157,1243489,104,"test"
165,"t04_2",2,"t04","INSTR","OBJ>PP",4,"eher natürlich",4898,528117,74,"test"
176,"t04_2",2,"t04","INSTR","OBJ>PP",5,"vollkommen natürlich",6579,380190,39,"test"
184,"t04_2",2,"t04","INSTR","OBJ>PP",4,"eher natürlich",6615,268669,21,"test"
135,"t04_2",2,"t04","INSTR","OBJ>PP",4,"eher natürlich",7383,275115,34,"test"
156,"t04_2",2,"t04","INSTR","OBJ>PP",5,"vollkommen natürlich",10364,629467,58,"test"
196,"t04_2",2,"t04","INSTR","OBJ>PP",5,"vollkommen natürlich",4682,255345,43,"test"
134,"t04_2",2,"t04","INSTR","OBJ>PP",4,"eher natürlich",5197,82806,8,"test"
151,"t04_2",2,"t04","INSTR","OBJ>PP",5,"vollkommen natürlich",9422,768635,92,"test"
169,"t04_2",2,"t04","INSTR","OBJ>PP",5,"vollkommen natürlich",3825,393261,65,"test"
157,"t04_2",2,"t04","INSTR","OBJ>PP",4,"eher natürlich",8985,871136,90,"test"
157,"t05_1",1,"t05","INSTR","PP>OBJ",2,"eher unnatürlich",7737,316401,27,"test"
151,"t05_1",1,"t05","INSTR","PP>OBJ",5,"vollkommen natürlich",6349,87081,9,"test"
165,"t05_1",1,"t05","INSTR","PP>OBJ",4,"eher natürlich",5652,357768,46,"test"
134,"t05_1",1,"t05","INSTR","PP>OBJ",4,"eher natürlich",8586,120028,12,"test"
176,"t05_1",1,"t05","INSTR","PP>OBJ",4,"eher natürlich",4932,527203,59,"test"
190,"t05_1",1,"t05","INSTR","PP>OBJ",3,"keine Tendenz",4822,378611,53,"test"
182,"t05_1",1,"t05","INSTR","PP>OBJ",4,"eher natürlich",11086,339061,31,"test"
133,"t05_1",1,"t05","INSTR","PP>OBJ",3,"keine Tendenz",10288,850544,68,"test"
161,"t05_1",1,"t05","INSTR","PP>OBJ",5,"vollkommen natürlich",10985,701429,63,"test"
162,"t05_1",1,"t05","INSTR","PP>OBJ",4,"eher natürlich",11755,120330,10,"test"
163,"t05_1",1,"t05","INSTR","PP>OBJ",2,"eher unnatürlich",3621,241615,32,"test"
166,"t05_1",1,"t05","INSTR","PP>OBJ",5,"vollkommen natürlich",3947,232285,38,"test"
135,"t05_1",1,"t05","INSTR","PP>OBJ",4,"eher natürlich",5630,470044,59,"test"
196,"t05_1",1,"t05","INSTR","PP>OBJ",5,"vollkommen natürlich",4824,351448,60,"test"
156,"t05_1",1,"t05","INSTR","PP>OBJ",4,"eher natürlich",9992,709479,67,"test"
169,"t05_1",1,"t05","INSTR","PP>OBJ",5,"vollkommen natürlich",8754,533661,92,"test"
184,"t05_1",1,"t05","INSTR","PP>OBJ",4,"eher natürlich",6018,170988,16,"test"
149,"t05_1",1,"t05","INSTR","PP>OBJ",4,"eher natürlich",9077,328870,12,"test"
136,"t05_2",2,"t05","INSTR","OBJ>PP",4,"eher natürlich",10522,412297,46,"test"
210,"t05_2",2,"t05","INSTR","OBJ>PP",5,"vollkommen natürlich",8694,869445,76,"test"
215,"t05_2",2,"t05","INSTR","OBJ>PP",5,"vollkommen natürlich",5220,442107,56,"test"
200,"t05_2",2,"t05","INSTR","OBJ>PP",5,"vollkommen natürlich",11287,1119189,99,"test"
189,"t05_2",2,"t05","INSTR","OBJ>PP",4,"eher natürlich",10221,871958,86,"test"
197,"t05_2",2,"t05","INSTR","OBJ>PP",5,"vollkommen natürlich",15095,385371,25,"test"
201,"t05_2",2,"t05","INSTR","OBJ>PP",5,"vollkommen natürlich",5124,828496,103,"test"
199,"t05_2",2,"t05","INSTR","OBJ>PP",5,"vollkommen natürlich",11167,590869,43,"test"
187,"t05_2",2,"t05","INSTR","OBJ>PP",5,"vollkommen natürlich",8834,200152,25,"test"
168,"t05_2",2,"t05","INSTR","OBJ>PP",5,"vollkommen natürlich",5469,726739,78,"test"
128,"t05_2",2,"t05","INSTR","OBJ>PP",4,"eher natürlich",5434,482493,41,"test"
185,"t05_2",2,"t05","INSTR","OBJ>PP",5,"vollkommen natürlich",5743,497414,59,"test"
213,"t05_2",2,"t05","INSTR","OBJ>PP",4,"eher natürlich",7976,384552,30,"test"
179,"t05_2",2,"t05","INSTR","OBJ>PP",5,"vollkommen natürlich",6390,775680,91,"test"
206,"t05_2",2,"t05","INSTR","OBJ>PP",5,"vollkommen natürlich",7540,167479,15,"test"
167,"t05_2",2,"t05","INSTR","OBJ>PP",5,"vollkommen natürlich",6023,460522,49,"test"
203,"t05_2",2,"t05","INSTR","OBJ>PP",5,"vollkommen natürlich",5724,278134,40,"test"
183,"t05_2",2,"t05","INSTR","OBJ>PP",4,"eher natürlich",25787,539277,34,"test"
179,"t06_1",1,"t06","INSTR","PP>OBJ",2,"eher unnatürlich",7944,829106,97,"test"
215,"t06_1",1,"t06","INSTR","PP>OBJ",5,"vollkommen natürlich",8319,61184,6,"test"
189,"t06_1",1,"t06","INSTR","PP>OBJ",1,"vollkommen unnatürlich",12943,140718,10,"test"
187,"t06_1",1,"t06","INSTR","PP>OBJ",4,"eher natürlich",7979,242823,31,"test"
167,"t06_1",1,"t06","INSTR","PP>OBJ",3,"keine Tendenz",6277,707787,78,"test"
168,"t06_1",1,"t06","INSTR","PP>OBJ",5,"vollkommen natürlich",9646,369546,39,"test"
183,"t06_1",1,"t06","INSTR","PP>OBJ",4,"eher natürlich",14644,767773,51,"test"
185,"t06_1",1,"t06","INSTR","PP>OBJ",4,"eher natürlich",6676,477383,56,"test"
128,"t06_1",1,"t06","INSTR","PP>OBJ",4,"eher natürlich",5536,1097865,99,"test"
197,"t06_1",1,"t06","INSTR","PP>OBJ",5,"vollkommen natürlich",11304,721688,56,"test"
200,"t06_1",1,"t06","INSTR","PP>OBJ",5,"vollkommen natürlich",11022,689942,59,"test"
206,"t06_1",1,"t06","INSTR","PP>OBJ",4,"eher natürlich",5379,447524,47,"test"
203,"t06_1",1,"t06","INSTR","PP>OBJ",4,"eher natürlich",5023,319183,44,"test"
199,"t06_1",1,"t06","INSTR","PP>OBJ",4,"eher natürlich",14263,1327989,100,"test"
213,"t06_1",1,"t06","INSTR","PP>OBJ",3,"keine Tendenz",7795,180415,14,"test"
210,"t06_1",1,"t06","INSTR","PP>OBJ",2,"eher unnatürlich",7133,462814,39,"test"
201,"t06_1",1,"t06","INSTR","PP>OBJ",5,"vollkommen natürlich",5710,271391,34,"test"
136,"t06_1",1,"t06","INSTR","PP>OBJ",4,"eher natürlich",11951,63071,6,"test"
149,"t06_2",2,"t06","INSTR","OBJ>PP",5,"vollkommen natürlich",11351,939101,65,"test"
151,"t06_2",2,"t06","INSTR","OBJ>PP",5,"vollkommen natürlich",6248,430665,53,"test"
196,"t06_2",2,"t06","INSTR","OBJ>PP",5,"vollkommen natürlich",5197,101874,14,"test"
176,"t06_2",2,"t06","INSTR","OBJ>PP",5,"vollkommen natürlich",11872,886140,101,"test"
165,"t06_2",2,"t06","INSTR","OBJ>PP",2,"eher unnatürlich",4381,584477,84,"test"
161,"t06_2",2,"t06","INSTR","OBJ>PP",3,"keine Tendenz",14005,258680,23,"test"
135,"t06_2",2,"t06","INSTR","OBJ>PP",4,"eher natürlich",8308,649711,81,"test"
157,"t06_2",2,"t06","INSTR","OBJ>PP",4,"eher natürlich",7479,332309,29,"test"
182,"t06_2",2,"t06","INSTR","OBJ>PP",4,"eher natürlich",18382,80049,6,"test"
190,"t06_2",2,"t06","INSTR","OBJ>PP",4,"eher natürlich",6871,160842,22,"test"
134,"t06_2",2,"t06","INSTR","OBJ>PP",4,"eher natürlich",19399,757500,99,"test"
156,"t06_2",2,"t06","INSTR","OBJ>PP",5,"vollkommen natürlich",8452,855120,84,"test"
166,"t06_2",2,"t06","INSTR","OBJ>PP",5,"vollkommen natürlich",5248,274986,46,"test"
163,"t06_2",2,"t06","INSTR","OBJ>PP",5,"vollkommen natürlich",9144,567768,79,"test"
184,"t06_2",2,"t06","INSTR","OBJ>PP",5,"vollkommen natürlich",5543,742023,78,"test"
169,"t06_2",2,"t06","INSTR","OBJ>PP",5,"vollkommen natürlich",4904,257153,40,"test"
133,"t06_2",2,"t06","INSTR","OBJ>PP",5,"vollkommen natürlich",13626,515614,43,"test"
162,"t06_2",2,"t06","INSTR","OBJ>PP",5,"vollkommen natürlich",5203,635615,70,"test"
149,"t07_1",1,"t07","INSTR","PP>OBJ",4,"eher natürlich",8712,435851,18,"test"
166,"t07_1",1,"t07","INSTR","PP>OBJ",4,"eher natürlich",4901,62910,10,"test"
133,"t07_1",1,"t07","INSTR","PP>OBJ",2,"eher unnatürlich",6550,179321,14,"test"
161,"t07_1",1,"t07","INSTR","PP>OBJ",5,"vollkommen natürlich",9143,122931,11,"test"
184,"t07_1",1,"t07","INSTR","PP>OBJ",4,"eher natürlich",5334,474161,43,"test"
135,"t07_1",1,"t07","INSTR","PP>OBJ",4,"eher natürlich",5803,226686,28,"test"
157,"t07_1",1,"t07","INSTR","PP>OBJ",4,"eher natürlich",6930,705133,73,"test"
196,"t07_1",1,"t07","INSTR","PP>OBJ",5,"vollkommen natürlich",4540,476561,83,"test"
156,"t07_1",1,"t07","INSTR","PP>OBJ",2,"eher unnatürlich",7516,416502,35,"test"
190,"t07_1",1,"t07","INSTR","PP>OBJ",3,"keine Tendenz",5759,596947,85,"test"
134,"t07_1",1,"t07","INSTR","PP>OBJ",2,"eher unnatürlich",7966,237541,29,"test"
165,"t07_1",1,"t07","INSTR","PP>OBJ",4,"eher natürlich",6812,691017,102,"test"
182,"t07_1",1,"t07","INSTR","PP>OBJ",4,"eher natürlich",6579,673777,66,"test"
163,"t07_1",1,"t07","INSTR","PP>OBJ",2,"eher unnatürlich",7466,552729,77,"test"
151,"t07_1",1,"t07","INSTR","PP>OBJ",4,"eher natürlich",5737,158175,20,"test"
169,"t07_1",1,"t07","INSTR","PP>OBJ",4,"eher natürlich",6403,136469,18,"test"
162,"t07_1",1,"t07","INSTR","PP>OBJ",5,"vollkommen natürlich",8087,383982,39,"test"
176,"t07_1",1,"t07","INSTR","PP>OBJ",2,"eher unnatürlich",6202,506991,55,"test"
185,"t07_2",2,"t07","INSTR","OBJ>PP",5,"vollkommen natürlich",4645,537723,65,"test"
206,"t07_2",2,"t07","INSTR","OBJ>PP",3,"keine Tendenz",7328,723980,80,"test"
168,"t07_2",2,"t07","INSTR","OBJ>PP",4,"eher natürlich",7494,670405,69,"test"
197,"t07_2",2,"t07","INSTR","OBJ>PP",5,"vollkommen natürlich",11119,1101450,98,"test"
201,"t07_2",2,"t07","INSTR","OBJ>PP",2,"eher unnatürlich",8957,396383,50,"test"
203,"t07_2",2,"t07","INSTR","OBJ>PP",4,"eher natürlich",5644,148681,20,"test"
179,"t07_2",2,"t07","INSTR","OBJ>PP",5,"vollkommen natürlich",9511,406098,45,"test"
167,"t07_2",2,"t07","INSTR","OBJ>PP",2,"eher unnatürlich",6846,631960,69,"test"
183,"t07_2",2,"t07","INSTR","OBJ>PP",4,"eher natürlich",16050,198931,12,"test"
136,"t07_2",2,"t07","INSTR","OBJ>PP",4,"eher natürlich",6465,860285,100,"test"
128,"t07_2",2,"t07","INSTR","OBJ>PP",4,"eher natürlich",17854,577378,49,"test"
210,"t07_2",2,"t07","INSTR","OBJ>PP",4,"eher natürlich",6405,962711,85,"test"
213,"t07_2",2,"t07","INSTR","OBJ>PP",4,"eher natürlich",9829,978232,84,"test"
187,"t07_2",2,"t07","INSTR","OBJ>PP",4,"eher natürlich",10153,615896,77,"test"
200,"t07_2",2,"t07","INSTR","OBJ>PP",5,"vollkommen natürlich",10685,643158,56,"test"
199,"t07_2",2,"t07","INSTR","OBJ>PP",5,"vollkommen natürlich",14110,1137269,85,"test"
215,"t07_2",2,"t07","INSTR","OBJ>PP",5,"vollkommen natürlich",6450,406682,51,"test"
189,"t07_2",2,"t07","INSTR","OBJ>PP",2,"eher unnatürlich",6750,762725,71,"test"
136,"t08_1",1,"t08","INSTR","PP>OBJ",5,"vollkommen natürlich",7427,184615,22,"test"
183,"t08_1",1,"t08","INSTR","PP>OBJ",4,"eher natürlich",21050,155599,9,"test"
197,"t08_1",1,"t08","INSTR","PP>OBJ",5,"vollkommen natürlich",8922,300278,19,"test"
203,"t08_1",1,"t08","INSTR","PP>OBJ",2,"eher unnatürlich",6679,734557,74,"test"
201,"t08_1",1,"t08","INSTR","PP>OBJ",4,"eher natürlich",8277,463423,59,"test"
179,"t08_1",1,"t08","INSTR","PP>OBJ",5,"vollkommen natürlich",8886,881258,105,"test"
213,"t08_1",1,"t08","INSTR","PP>OBJ",4,"eher natürlich",8395,486195,39,"test"
189,"t08_1",1,"t08","INSTR","PP>OBJ",4,"eher natürlich",26151,538262,46,"test"
210,"t08_1",1,"t08","INSTR","PP>OBJ",2,"eher unnatürlich",9950,266422,21,"test"
187,"t08_1",1,"t08","INSTR","PP>OBJ",4,"eher natürlich",11300,757343,95,"test"
185,"t08_1",1,"t08","INSTR","PP>OBJ",5,"vollkommen natürlich",13181,263410,30,"test"
167,"t08_1",1,"t08","INSTR","PP>OBJ",2,"eher unnatürlich",6937,446786,47,"test"
128,"t08_1",1,"t08","INSTR","PP>OBJ",4,"eher natürlich",10022,500389,43,"test"
199,"t08_1",1,"t08","INSTR","PP>OBJ",4,"eher natürlich",16303,257390,19,"test"
200,"t08_1",1,"t08","INSTR","PP>OBJ",2,"eher unnatürlich",15901,169838,13,"test"
168,"t08_1",1,"t08","INSTR","PP>OBJ",5,"vollkommen natürlich",7637,761217,83,"test"
206,"t08_1",1,"t08","INSTR","PP>OBJ",5,"vollkommen natürlich",8422,334317,34,"test"
215,"t08_1",1,"t08","INSTR","PP>OBJ",5,"vollkommen natürlich",6437,211286,27,"test"
157,"t08_2",2,"t08","INSTR","OBJ>PP",4,"eher natürlich",10899,125635,8,"test"
163,"t08_2",2,"t08","INSTR","OBJ>PP",1,"vollkommen unnatürlich",7193,322084,43,"test"
166,"t08_2",2,"t08","INSTR","OBJ>PP",5,"vollkommen natürlich",4360,323525,54,"test"
176,"t08_2",2,"t08","INSTR","OBJ>PP",2,"eher unnatürlich",10085,778449,90,"test"
169,"t08_2",2,"t08","INSTR","OBJ>PP",5,"vollkommen natürlich",4514,313445,50,"test"
161,"t08_2",2,"t08","INSTR","OBJ>PP",3,"keine Tendenz",10001,373935,35,"test"
190,"t08_2",2,"t08","INSTR","OBJ>PP",4,"eher natürlich",5259,99184,13,"test"
133,"t08_2",2,"t08","INSTR","OBJ>PP",3,"keine Tendenz",17695,799274,63,"test"
184,"t08_2",2,"t08","INSTR","OBJ>PP",4,"eher natürlich",7605,281779,23,"test"
165,"t08_2",2,"t08","INSTR","OBJ>PP",2,"eher unnatürlich",5410,594135,86,"test"
149,"t08_2",2,"t08","INSTR","OBJ>PP",4,"eher natürlich",10217,961958,67,"test"
135,"t08_2",2,"t08","INSTR","OBJ>PP",3,"keine Tendenz",7340,814348,99,"test"
151,"t08_2",2,"t08","INSTR","OBJ>PP",4,"eher natürlich",10101,647944,78,"test"
182,"t08_2",2,"t08","INSTR","OBJ>PP",4,"eher natürlich",13701,114488,9,"test"
162,"t08_2",2,"t08","INSTR","OBJ>PP",5,"vollkommen natürlich",5671,615182,67,"test"
196,"t08_2",2,"t08","INSTR","OBJ>PP",4,"eher natürlich",3482,359030,62,"test"
156,"t08_2",2,"t08","INSTR","OBJ>PP",1,"vollkommen unnatürlich",49130,225905,15,"test"
134,"t08_2",2,"t08","INSTR","OBJ>PP",4,"eher natürlich",5954,732615,97,"test"
196,"t09_1",1,"t09","INSTR","PP>OBJ",4,"eher natürlich",3694,216398,36,"test"
176,"t09_1",1,"t09","INSTR","PP>OBJ",2,"eher unnatürlich",13244,64855,6,"test"
163,"t09_1",1,"t09","INSTR","PP>OBJ",2,"eher unnatürlich",5689,429628,59,"test"
166,"t09_1",1,"t09","INSTR","PP>OBJ",5,"vollkommen natürlich",4498,147501,22,"test"
135,"t09_1",1,"t09","INSTR","PP>OBJ",4,"eher natürlich",6617,85147,10,"test"
149,"t09_1",1,"t09","INSTR","PP>OBJ",4,"eher natürlich",10146,1098356,83,"test"
162,"t09_1",1,"t09","INSTR","PP>OBJ",5,"vollkommen natürlich",8800,216232,20,"test"
161,"t09_1",1,"t09","INSTR","PP>OBJ",5,"vollkommen natürlich",15129,804675,71,"test"
157,"t09_1",1,"t09","INSTR","PP>OBJ",4,"eher natürlich",4553,546158,53,"test"
184,"t09_1",1,"t09","INSTR","PP>OBJ",4,"eher natürlich",6520,144073,13,"test"
156,"t09_1",1,"t09","INSTR","PP>OBJ",4,"eher natürlich",5708,932548,94,"test"
151,"t09_1",1,"t09","INSTR","PP>OBJ",4,"eher natürlich",6994,367214,44,"test"
190,"t09_1",1,"t09","INSTR","PP>OBJ",4,"eher natürlich",5571,296395,42,"test"
182,"t09_1",1,"t09","INSTR","PP>OBJ",4,"eher natürlich",6293,846139,89,"test"
169,"t09_1",1,"t09","INSTR","PP>OBJ",5,"vollkommen natürlich",4942,104768,13,"test"
134,"t09_1",1,"t09","INSTR","PP>OBJ",4,"eher natürlich",4973,640294,85,"test"
165,"t09_1",1,"t09","INSTR","PP>OBJ",4,"eher natürlich",8538,618407,90,"test"
133,"t09_1",1,"t09","INSTR","PP>OBJ",3,"keine Tendenz",12183,1137358,94,"test"
179,"t09_2",2,"t09","INSTR","OBJ>PP",4,"eher natürlich",10885,291134,32,"test"
167,"t09_2",2,"t09","INSTR","OBJ>PP",4,"eher natürlich",8584,814156,91,"test"
183,"t09_2",2,"t09","INSTR","OBJ>PP",4,"eher natürlich",5732,1109350,78,"test"
215,"t09_2",2,"t09","INSTR","OBJ>PP",5,"vollkommen natürlich",6309,159431,20,"test"
203,"t09_2",2,"t09","INSTR","OBJ>PP",4,"eher natürlich",89521,551551,61,"test"
197,"t09_2",2,"t09","INSTR","OBJ>PP",4,"eher natürlich",20550,440603,30,"test"
185,"t09_2",2,"t09","INSTR","OBJ>PP",5,"vollkommen natürlich",7071,366664,42,"test"
168,"t09_2",2,"t09","INSTR","OBJ>PP",4,"eher natürlich",8739,846369,94,"test"
213,"t09_2",2,"t09","INSTR","OBJ>PP",3,"keine Tendenz",16036,709368,60,"test"
128,"t09_2",2,"t09","INSTR","OBJ>PP",4,"eher natürlich",9723,838525,75,"test"
189,"t09_2",2,"t09","INSTR","OBJ>PP",4,"eher natürlich",7785,734166,67,"test"
201,"t09_2",2,"t09","INSTR","OBJ>PP",4,"eher natürlich",10839,544312,69,"test"
136,"t09_2",2,"t09","INSTR","OBJ>PP",5,"vollkommen natürlich",9212,534537,61,"test"
210,"t09_2",2,"t09","INSTR","OBJ>PP",4,"eher natürlich",9205,759093,65,"test"
206,"t09_2",2,"t09","INSTR","OBJ>PP",4,"eher natürlich",6819,539314,58,"test"
199,"t09_2",2,"t09","INSTR","OBJ>PP",5,"vollkommen natürlich",11942,1092765,81,"test"
200,"t09_2",2,"t09","INSTR","OBJ>PP",5,"vollkommen natürlich",10245,249455,20,"test"
187,"t09_2",2,"t09","INSTR","OBJ>PP",5,"vollkommen natürlich",16948,171895,22,"test"
187,"t10_1",1,"t10","INSTR","PP>OBJ",4,"eher natürlich",7683,53277,6,"test"
179,"t10_1",1,"t10","INSTR","PP>OBJ",2,"eher unnatürlich",8139,203614,22,"test"
189,"t10_1",1,"t10","INSTR","PP>OBJ",2,"eher unnatürlich",16989,258676,19,"test"
168,"t10_1",1,"t10","INSTR","PP>OBJ",5,"vollkommen natürlich",9609,103251,10,"test"
213,"t10_1",1,"t10","INSTR","PP>OBJ",4,"eher natürlich",22125,1109520,96,"test"
203,"t10_1",1,"t10","INSTR","PP>OBJ",2,"eher unnatürlich",7239,90316,11,"test"
167,"t10_1",1,"t10","INSTR","PP>OBJ",2,"eher unnatürlich",8679,274783,27,"test"
215,"t10_1",1,"t10","INSTR","PP>OBJ",5,"vollkommen natürlich",7567,241426,31,"test"
200,"t10_1",1,"t10","INSTR","PP>OBJ",4,"eher natürlich",10942,130647,10,"test"
210,"t10_1",1,"t10","INSTR","PP>OBJ",4,"eher natürlich",6714,444581,37,"test"
206,"t10_1",1,"t10","INSTR","PP>OBJ",2,"eher unnatürlich",9125,706556,77,"test"
128,"t10_1",1,"t10","INSTR","PP>OBJ",4,"eher natürlich",7979,961586,85,"test"
201,"t10_1",1,"t10","INSTR","PP>OBJ",1,"vollkommen unnatürlich",5940,634207,81,"test"
185,"t10_1",1,"t10","INSTR","PP>OBJ",4,"eher natürlich",3157,808183,87,"test"
199,"t10_1",1,"t10","INSTR","PP>OBJ",5,"vollkommen natürlich",17950,835893,61,"test"
197,"t10_1",1,"t10","INSTR","PP>OBJ",4,"eher natürlich",9945,745763,59,"test"
136,"t10_1",1,"t10","INSTR","PP>OBJ",5,"vollkommen natürlich",12318,736060,84,"test"
183,"t10_1",1,"t10","INSTR","PP>OBJ",4,"eher natürlich",9880,952064,65,"test"
169,"t10_2",2,"t10","INSTR","OBJ>PP",5,"vollkommen natürlich",6270,189491,27,"test"
156,"t10_2",2,"t10","INSTR","OBJ>PP",4,"eher natürlich",5830,971460,99,"test"
184,"t10_2",2,"t10","INSTR","OBJ>PP",4,"eher natürlich",10400,439499,39,"test"
163,"t10_2",2,"t10","INSTR","OBJ>PP",4,"eher natürlich",10239,113877,14,"test"
196,"t10_2",2,"t10","INSTR","OBJ>PP",4,"eher natürlich",5770,306516,53,"test"
151,"t10_2",2,"t10","INSTR","OBJ>PP",4,"eher natürlich",11610,280105,34,"test"
162,"t10_2",2,"t10","INSTR","OBJ>PP",4,"eher natürlich",13780,349710,35,"test"
190,"t10_2",2,"t10","INSTR","OBJ>PP",2,"eher unnatürlich",5933,474993,67,"test"
165,"t10_2",2,"t10","INSTR","OBJ>PP",2,"eher unnatürlich",6985,705625,104,"test"
182,"t10_2",2,"t10","INSTR","OBJ>PP",4,"eher natürlich",9237,423442,40,"test"
133,"t10_2",2,"t10","INSTR","OBJ>PP",3,"keine Tendenz",8499,1200241,100,"test"
149,"t10_2",2,"t10","INSTR","OBJ>PP",4,"eher natürlich",8210,534484,28,"test"
161,"t10_2",2,"t10","INSTR","OBJ>PP",4,"eher natürlich",14555,832514,73,"test"
157,"t10_2",2,"t10","INSTR","OBJ>PP",4,"eher natürlich",5578,911704,95,"test"
166,"t10_2",2,"t10","INSTR","OBJ>PP",5,"vollkommen natürlich",4240,571773,87,"test"
135,"t10_2",2,"t10","INSTR","OBJ>PP",2,"eher unnatürlich",6818,187008,23,"test"
134,"t10_2",2,"t10","INSTR","OBJ>PP",2,"eher unnatürlich",7247,487462,63,"test"
176,"t10_2",2,"t10","INSTR","OBJ>PP",4,"eher natürlich",9222,732501,84,"test"
169,"t11_1",1,"t11","INSTR","PP>OBJ",4,"eher natürlich",6612,576495,101,"test"
162,"t11_1",1,"t11","INSTR","PP>OBJ",5,"vollkommen natürlich",6424,882973,104,"test"
157,"t11_1",1,"t11","INSTR","PP>OBJ",4,"eher natürlich",12789,457486,44,"test"
133,"t11_1",1,"t11","INSTR","PP>OBJ",3,"keine Tendenz",14746,956973,78,"test"
166,"t11_1",1,"t11","INSTR","PP>OBJ",5,"vollkommen natürlich",5423,668870,104,"test"
151,"t11_1",1,"t11","INSTR","PP>OBJ",2,"eher unnatürlich",11821,183471,22,"test"
163,"t11_1",1,"t11","INSTR","PP>OBJ",2,"eher unnatürlich",8711,679749,94,"test"
156,"t11_1",1,"t11","INSTR","PP>OBJ",1,"vollkommen unnatürlich",4477,429371,37,"test"
161,"t11_1",1,"t11","INSTR","PP>OBJ",5,"vollkommen natürlich",9818,586385,54,"test"
135,"t11_1",1,"t11","INSTR","PP>OBJ",3,"keine Tendenz",9088,145166,17,"test"
149,"t11_1",1,"t11","INSTR","PP>OBJ",1,"vollkommen unnatürlich",10722,1204068,96,"test"
190,"t11_1",1,"t11","INSTR","PP>OBJ",4,"eher natürlich",6955,710969,103,"test"
196,"t11_1",1,"t11","INSTR","PP>OBJ",4,"eher natürlich",5590,120393,17,"test"
165,"t11_1",1,"t11","INSTR","PP>OBJ",4,"eher natürlich",4984,471341,64,"test"
134,"t11_1",1,"t11","INSTR","PP>OBJ",4,"eher natürlich",6027,341106,44,"test"
184,"t11_1",1,"t11","INSTR","PP>OBJ",1,"vollkommen unnatürlich",6349,722554,74,"test"
182,"t11_1",1,"t11","INSTR","PP>OBJ",5,"vollkommen natürlich",6197,810706,84,"test"
176,"t11_1",1,"t11","INSTR","PP>OBJ",4,"eher natürlich",11363,666371,76,"test"
185,"t11_2",2,"t11","INSTR","OBJ>PP",4,"eher natürlich",14770,236387,27,"test"
210,"t11_2",2,"t11","INSTR","OBJ>PP",5,"vollkommen natürlich",13028,930010,81,"test"
128,"t11_2",2,"t11","INSTR","OBJ>PP",4,"eher natürlich",11495,348979,29,"test"
167,"t11_2",2,"t11","INSTR","OBJ>PP",4,"eher natürlich",13744,131106,12,"test"
200,"t11_2",2,"t11","INSTR","OBJ>PP",5,"vollkommen natürlich",13709,230006,18,"test"
189,"t11_2",2,"t11","INSTR","OBJ>PP",2,"eher unnatürlich",15362,224108,16,"test"
206,"t11_2",2,"t11","INSTR","OBJ>PP",5,"vollkommen natürlich",10681,130138,11,"test"
215,"t11_2",2,"t11","INSTR","OBJ>PP",5,"vollkommen natürlich",5792,753566,96,"test"
168,"t11_2",2,"t11","INSTR","OBJ>PP",4,"eher natürlich",11175,885305,99,"test"
183,"t11_2",2,"t11","INSTR","OBJ>PP",4,"eher natürlich",16505,355113,24,"test"
179,"t11_2",2,"t11","INSTR","OBJ>PP",4,"eher natürlich",7646,362372,40,"test"
136,"t11_2",2,"t11","INSTR","OBJ>PP",4,"eher natürlich",7937,317191,35,"test"
201,"t11_2",2,"t11","INSTR","OBJ>PP",2,"eher unnatürlich",9117,329471,41,"test"
187,"t11_2",2,"t11","INSTR","OBJ>PP",5,"vollkommen natürlich",10048,352664,43,"test"
203,"t11_2",2,"t11","INSTR","OBJ>PP",5,"vollkommen natürlich",7468,171636,24,"test"
197,"t11_2",2,"t11","INSTR","OBJ>PP",4,"eher natürlich",13401,609231,44,"test"
213,"t11_2",2,"t11","INSTR","OBJ>PP",3,"keine Tendenz",12292,885819,76,"test"
199,"t11_2",2,"t11","INSTR","OBJ>PP",5,"vollkommen natürlich",14631,1003220,74,"test"
199,"t12_1",1,"t12","INSTR","PP>OBJ",4,"eher natürlich",17207,146022,11,"test"
197,"t12_1",1,"t12","INSTR","PP>OBJ",5,"vollkommen natürlich",13990,253049,16,"test"
210,"t12_1",1,"t12","INSTR","PP>OBJ",4,"eher natürlich",8750,792446,68,"test"
167,"t12_1",1,"t12","INSTR","PP>OBJ",2,"eher unnatürlich",6102,311725,31,"test"
200,"t12_1",1,"t12","INSTR","PP>OBJ",5,"vollkommen natürlich",6429,892445,78,"test"
185,"t12_1",1,"t12","INSTR","PP>OBJ",5,"vollkommen natürlich",12001,315178,35,"test"
168,"t12_1",1,"t12","INSTR","PP>OBJ",2,"eher unnatürlich",11114,655634,67,"test"
213,"t12_1",1,"t12","INSTR","PP>OBJ",4,"eher natürlich",15150,153108,11,"test"
206,"t12_1",1,"t12","INSTR","PP>OBJ",4,"eher natürlich",7994,262740,26,"test"
215,"t12_1",1,"t12","INSTR","PP>OBJ",5,"vollkommen natürlich",6950,115341,13,"test"
128,"t12_1",1,"t12","INSTR","PP>OBJ",4,"eher natürlich",7479,315938,26,"test"
189,"t12_1",1,"t12","INSTR","PP>OBJ",2,"eher unnatürlich",8745,280973,21,"test"
187,"t12_1",1,"t12","INSTR","PP>OBJ",4,"eher natürlich",5076,529960,65,"test"
136,"t12_1",1,"t12","INSTR","PP>OBJ",3,"keine Tendenz",6882,129098,15,"test"
179,"t12_1",1,"t12","INSTR","PP>OBJ",3,"keine Tendenz",8330,310235,34,"test"
203,"t12_1",1,"t12","INSTR","PP>OBJ",5,"vollkommen natürlich",4694,922640,105,"test"
201,"t12_1",1,"t12","INSTR","PP>OBJ",5,"vollkommen natürlich",8118,230432,28,"test"
183,"t12_1",1,"t12","INSTR","PP>OBJ",4,"eher natürlich",11458,1267788,95,"test"
190,"t12_2",2,"t12","INSTR","OBJ>PP",4,"eher natürlich",4958,390011,55,"test"
156,"t12_2",2,"t12","INSTR","OBJ>PP",4,"eher natürlich",8864,786620,76,"test"
176,"t12_2",2,"t12","INSTR","OBJ>PP",2,"eher unnatürlich",10593,617415,71,"test"
163,"t12_2",2,"t12","INSTR","OBJ>PP",1,"vollkommen unnatürlich",8091,724906,99,"test"
162,"t12_2",2,"t12","INSTR","OBJ>PP",5,"vollkommen natürlich",9665,458017,47,"test"
149,"t12_2",2,"t12","INSTR","OBJ>PP",4,"eher natürlich",7613,1273952,104,"test"
133,"t12_2",2,"t12","INSTR","OBJ>PP",2,"eher unnatürlich",11839,645971,50,"test"
161,"t12_2",2,"t12","INSTR","OBJ>PP",4,"eher natürlich",12354,148781,13,"test"
169,"t12_2",2,"t12","INSTR","OBJ>PP",5,"vollkommen natürlich",4256,554465,97,"test"
151,"t12_2",2,"t12","INSTR","OBJ>PP",4,"eher natürlich",8825,116653,13,"test"
157,"t12_2",2,"t12","INSTR","OBJ>PP",4,"eher natürlich",6635,243141,19,"test"
182,"t12_2",2,"t12","INSTR","OBJ>PP",4,"eher natürlich",9196,397130,37,"test"
166,"t12_2",2,"t12","INSTR","OBJ>PP",5,"vollkommen natürlich",4816,532252,80,"test"
184,"t12_2",2,"t12","INSTR","OBJ>PP",4,"eher natürlich",7342,871125,95,"test"
165,"t12_2",2,"t12","INSTR","OBJ>PP",2,"eher unnatürlich",5433,332831,42,"test"
134,"t12_2",2,"t12","INSTR","OBJ>PP",4,"eher natürlich",6575,767910,101,"test"
196,"t12_2",2,"t12","INSTR","OBJ>PP",4,"eher natürlich",3888,414612,74,"test"
135,"t12_2",2,"t12","INSTR","OBJ>PP",3,"keine Tendenz",10017,489712,61,"test"
165,"t13_1",1,"t13","COM(O)","PP>OBJ",4,"eher natürlich",7236,666187,98,"test"
135,"t13_1",1,"t13","COM(O)","PP>OBJ",1,"vollkommen unnatürlich",9496,325614,41,"test"
133,"t13_1",1,"t13","COM(O)","PP>OBJ",2,"eher unnatürlich",6490,1116277,92,"test"
134,"t13_1",1,"t13","COM(O)","PP>OBJ",4,"eher natürlich",9866,270970,34,"test"
149,"t13_1",1,"t13","COM(O)","PP>OBJ",2,"eher unnatürlich",9206,273975,7,"test"
162,"t13_1",1,"t13","COM(O)","PP>OBJ",5,"vollkommen natürlich",12864,788018,89,"test"
190,"t13_1",1,"t13","COM(O)","PP>OBJ",3,"keine Tendenz",5748,690305,100,"test"
169,"t13_1",1,"t13","COM(O)","PP>OBJ",2,"eher unnatürlich",5277,437743,75,"test"
163,"t13_1",1,"t13","COM(O)","PP>OBJ",4,"eher natürlich",7748,518515,72,"test"
182,"t13_1",1,"t13","COM(O)","PP>OBJ",4,"eher natürlich",7062,595934,57,"test"
161,"t13_1",1,"t13","COM(O)","PP>OBJ",3,"keine Tendenz",9916,302181,27,"test"
166,"t13_1",1,"t13","COM(O)","PP>OBJ",4,"eher natürlich",7907,346892,57,"test"
157,"t13_1",1,"t13","COM(O)","PP>OBJ",4,"eher natürlich",5566,526989,50,"test"
151,"t13_1",1,"t13","COM(O)","PP>OBJ",2,"eher unnatürlich",13158,828830,99,"test"
176,"t13_1",1,"t13","COM(O)","PP>OBJ",2,"eher unnatürlich",9638,595226,68,"test"
196,"t13_1",1,"t13","COM(O)","PP>OBJ",4,"eher natürlich",4248,166036,26,"test"
156,"t13_1",1,"t13","COM(O)","PP>OBJ",4,"eher natürlich",9965,595986,54,"test"
184,"t13_1",1,"t13","COM(O)","PP>OBJ",4,"eher natürlich",6425,595239,58,"test"
179,"t13_2",2,"t13","COM(O)","OBJ>PP",3,"keine Tendenz",12190,179984,19,"test"
197,"t13_2",2,"t13","COM(O)","OBJ>PP",5,"vollkommen natürlich",10659,353571,23,"test"
206,"t13_2",2,"t13","COM(O)","OBJ>PP",4,"eher natürlich",12037,761271,85,"test"
187,"t13_2",2,"t13","COM(O)","OBJ>PP",4,"eher natürlich",6255,716557,90,"test"
199,"t13_2",2,"t13","COM(O)","OBJ>PP",4,"eher natürlich",18975,1038493,77,"test"
203,"t13_2",2,"t13","COM(O)","OBJ>PP",5,"vollkommen natürlich",8029,817585,89,"test"
167,"t13_2",2,"t13","COM(O)","OBJ>PP",4,"eher natürlich",10121,424976,44,"test"
136,"t13_2",2,"t13","COM(O)","OBJ>PP",2,"eher unnatürlich",7565,476614,54,"test"
168,"t13_2",2,"t13","COM(O)","OBJ>PP",5,"vollkommen natürlich",8301,263854,26,"test"
128,"t13_2",2,"t13","COM(O)","OBJ>PP",4,"eher natürlich",12422,381758,31,"test"
213,"t13_2",2,"t13","COM(O)","OBJ>PP",4,"eher natürlich",8545,1193782,104,"test"
185,"t13_2",2,"t13","COM(O)","OBJ>PP",4,"eher natürlich",11599,896405,99,"test"
189,"t13_2",2,"t13","COM(O)","OBJ>PP",4,"eher natürlich",10653,446157,37,"test"
201,"t13_2",2,"t13","COM(O)","OBJ>PP",5,"vollkommen natürlich",6154,482512,62,"test"
183,"t13_2",2,"t13","COM(O)","OBJ>PP",4,"eher natürlich",8748,1239506,91,"test"
200,"t13_2",2,"t13","COM(O)","OBJ>PP",5,"vollkommen natürlich",10278,400967,35,"test"
215,"t13_2",2,"t13","COM(O)","OBJ>PP",5,"vollkommen natürlich",6802,541435,67,"test"
210,"t13_2",2,"t13","COM(O)","OBJ>PP",5,"vollkommen natürlich",11551,1078191,95,"test"
179,"t14_1",1,"t14","COM(O)","PP>OBJ",2,"eher unnatürlich",9808,112007,11,"test"
183,"t14_1",1,"t14","COM(O)","PP>OBJ",1,"vollkommen unnatürlich",40601,287145,17,"test"
168,"t14_1",1,"t14","COM(O)","PP>OBJ",4,"eher natürlich",7836,823690,91,"test"
215,"t14_1",1,"t14","COM(O)","PP>OBJ",5,"vollkommen natürlich",6883,698109,88,"test"
200,"t14_1",1,"t14","COM(O)","PP>OBJ",4,"eher natürlich",13662,1148222,102,"test"
203,"t14_1",1,"t14","COM(O)","PP>OBJ",3,"keine Tendenz",5566,212427,28,"test"
199,"t14_1",1,"t14","COM(O)","PP>OBJ",4,"eher natürlich",16271,1069748,79,"test"
210,"t14_1",1,"t14","COM(O)","PP>OBJ",2,"eher unnatürlich",8133,240469,19,"test"
201,"t14_1",1,"t14","COM(O)","PP>OBJ",2,"eher unnatürlich",7787,807288,100,"test"
197,"t14_1",1,"t14","COM(O)","PP>OBJ",4,"eher natürlich",9387,1073235,95,"test"
187,"t14_1",1,"t14","COM(O)","PP>OBJ",4,"eher natürlich",7120,601050,75,"test"
189,"t14_1",1,"t14","COM(O)","PP>OBJ",2,"eher unnatürlich",8058,344116,27,"test"
206,"t14_1",1,"t14","COM(O)","PP>OBJ",4,"eher natürlich",9636,857308,98,"test"
136,"t14_1",1,"t14","COM(O)","PP>OBJ",4,"eher natürlich",7615,708638,81,"test"
167,"t14_1",1,"t14","COM(O)","PP>OBJ",2,"eher unnatürlich",6875,924475,105,"test"
128,"t14_1",1,"t14","COM(O)","PP>OBJ",3,"keine Tendenz",15537,444479,37,"test"
213,"t14_1",1,"t14","COM(O)","PP>OBJ",4,"eher natürlich",11577,749001,64,"test"
185,"t14_1",1,"t14","COM(O)","PP>OBJ",4,"eher natürlich",5050,830318,91,"test"
176,"t14_2",2,"t14","COM(O)","OBJ>PP",4,"eher natürlich",16780,869571,99,"test"
156,"t14_2",2,"t14","COM(O)","OBJ>PP",4,"eher natürlich",11754,510854,45,"test"
163,"t14_2",2,"t14","COM(O)","OBJ>PP",3,"keine Tendenz",9556,56278,7,"test"
196,"t14_2",2,"t14","COM(O)","OBJ>PP",4,"eher natürlich",3459,569506,103,"test"
162,"t14_2",2,"t14","COM(O)","OBJ>PP",5,"vollkommen natürlich",4747,516939,55,"test"
165,"t14_2",2,"t14","COM(O)","OBJ>PP",2,"eher unnatürlich",4520,500021,70,"test"
134,"t14_2",2,"t14","COM(O)","OBJ>PP",4,"eher natürlich",7835,430161,56,"test"
157,"t14_2",2,"t14","COM(O)","OBJ>PP",4,"eher natürlich",7952,205780,14,"test"
190,"t14_2",2,"t14","COM(O)","OBJ>PP",3,"keine Tendenz",7983,580739,83,"test"
182,"t14_2",2,"t14","COM(O)","OBJ>PP",4,"eher natürlich",6494,543850,51,"test"
184,"t14_2",2,"t14","COM(O)","OBJ>PP",4,"eher natürlich",6850,823451,89,"test"
151,"t14_2",2,"t14","COM(O)","OBJ>PP",2,"eher unnatürlich",6346,739559,88,"test"
166,"t14_2",2,"t14","COM(O)","OBJ>PP",5,"vollkommen natürlich",14592,388237,62,"test"
133,"t14_2",2,"t14","COM(O)","OBJ>PP",4,"eher natürlich",11151,326186,25,"test"
135,"t14_2",2,"t14","COM(O)","OBJ>PP",4,"eher natürlich",6940,692186,84,"test"
161,"t14_2",2,"t14","COM(O)","OBJ>PP",4,"eher natürlich",19500,755729,67,"test"
149,"t14_2",2,"t14","COM(O)","OBJ>PP",4,"eher natürlich",11303,1224992,98,"test"
169,"t14_2",2,"t14","COM(O)","OBJ>PP",5,"vollkommen natürlich",4711,230735,35,"test"
182,"t15_1",1,"t15","COM(O)","PP>OBJ",3,"keine Tendenz",7901,695026,69,"test"
163,"t15_1",1,"t15","COM(O)","PP>OBJ",2,"eher unnatürlich",8460,261144,35,"test"
169,"t15_1",1,"t15","COM(O)","PP>OBJ",2,"eher unnatürlich",4778,469667,81,"test"
166,"t15_1",1,"t15","COM(O)","PP>OBJ",5,"vollkommen natürlich",4726,624723,96,"test"
176,"t15_1",1,"t15","COM(O)","PP>OBJ",5,"vollkommen natürlich",7428,434494,46,"test"
161,"t15_1",1,"t15","COM(O)","PP>OBJ",2,"eher unnatürlich",13353,1141897,96,"test"
134,"t15_1",1,"t15","COM(O)","PP>OBJ",4,"eher natürlich",4807,583543,76,"test"
165,"t15_1",1,"t15","COM(O)","PP>OBJ",4,"eher natürlich",9396,576193,82,"test"
149,"t15_1",1,"t15","COM(O)","PP>OBJ",4,"eher natürlich",11421,1168561,92,"test"
190,"t15_1",1,"t15","COM(O)","PP>OBJ",2,"eher unnatürlich",10615,361876,51,"test"
135,"t15_1",1,"t15","COM(O)","PP>OBJ",1,"vollkommen unnatürlich",7933,290468,36,"test"
133,"t15_1",1,"t15","COM(O)","PP>OBJ",2,"eher unnatürlich",5917,464075,37,"test"
157,"t15_1",1,"t15","COM(O)","PP>OBJ",4,"eher natürlich",5410,652968,65,"test"
151,"t15_1",1,"t15","COM(O)","PP>OBJ",2,"eher unnatürlich",7081,858261,102,"test"
162,"t15_1",1,"t15","COM(O)","PP>OBJ",5,"vollkommen natürlich",5416,605909,65,"test"
156,"t15_1",1,"t15","COM(O)","PP>OBJ",2,"eher unnatürlich",6072,997683,103,"test"
184,"t15_1",1,"t15","COM(O)","PP>OBJ",2,"eher unnatürlich",17172,674321,68,"test"
196,"t15_1",1,"t15","COM(O)","PP>OBJ",2,"eher unnatürlich",6078,369381,64,"test"
183,"t15_2",2,"t15","COM(O)","OBJ>PP",4,"eher natürlich",4942,1323952,102,"test"
213,"t15_2",2,"t15","COM(O)","OBJ>PP",4,"eher natürlich",9335,830650,72,"test"
187,"t15_2",2,"t15","COM(O)","OBJ>PP",4,"eher natürlich",8228,735692,93,"test"
136,"t15_2",2,"t15","COM(O)","OBJ>PP",4,"eher natürlich",8445,509784,58,"test"
167,"t15_2",2,"t15","COM(O)","OBJ>PP",3,"keine Tendenz",10623,197497,19,"test"
128,"t15_2",2,"t15","COM(O)","OBJ>PP",4,"eher natürlich",28872,924664,82,"test"
199,"t15_2",2,"t15","COM(O)","OBJ>PP",2,"eher unnatürlich",19927,449165,32,"test"
168,"t15_2",2,"t15","COM(O)","OBJ>PP",2,"eher unnatürlich",6627,203929,20,"test"
210,"t15_2",2,"t15","COM(O)","OBJ>PP",4,"eher natürlich",10895,283821,23,"test"
206,"t15_2",2,"t15","COM(O)","OBJ>PP",4,"eher natürlich",13829,232850,22,"test"
197,"t15_2",2,"t15","COM(O)","OBJ>PP",4,"eher natürlich",39764,497988,33,"test"
215,"t15_2",2,"t15","COM(O)","OBJ>PP",5,"vollkommen natürlich",9549,499986,61,"test"
185,"t15_2",2,"t15","COM(O)","OBJ>PP",4,"eher natürlich",41610,584078,67,"test"
203,"t15_2",2,"t15","COM(O)","OBJ>PP",5,"vollkommen natürlich",9788,370536,52,"test"
201,"t15_2",2,"t15","COM(O)","OBJ>PP",4,"eher natürlich",9956,110848,12,"test"
200,"t15_2",2,"t15","COM(O)","OBJ>PP",2,"eher unnatürlich",10526,277590,23,"test"
179,"t15_2",2,"t15","COM(O)","OBJ>PP",4,"eher natürlich",7870,866575,103,"test"
189,"t15_2",2,"t15","COM(O)","OBJ>PP",4,"eher natürlich",12388,306605,23,"test"
168,"t16_1",1,"t16","COM(O)","PP>OBJ",4,"eher natürlich",5744,558149,55,"test"
167,"t16_1",1,"t16","COM(O)","PP>OBJ",2,"eher unnatürlich",10199,556282,59,"test"
197,"t16_1",1,"t16","COM(O)","PP>OBJ",4,"eher natürlich",10258,993440,85,"test"
185,"t16_1",1,"t16","COM(O)","PP>OBJ",4,"eher natürlich",5478,161097,20,"test"
128,"t16_1",1,"t16","COM(O)","PP>OBJ",3,"keine Tendenz",16597,680125,58,"test"
215,"t16_1",1,"t16","COM(O)","PP>OBJ",5,"vollkommen natürlich",6045,320629,41,"test"
213,"t16_1",1,"t16","COM(O)","PP>OBJ",5,"vollkommen natürlich",8009,469260,37,"test"
203,"t16_1",1,"t16","COM(O)","PP>OBJ",4,"eher natürlich",7761,245842,34,"test"
187,"t16_1",1,"t16","COM(O)","PP>OBJ",2,"eher unnatürlich",10514,221488,28,"test"
210,"t16_1",1,"t16","COM(O)","PP>OBJ",4,"eher natürlich",13950,731405,62,"test"
189,"t16_1",1,"t16","COM(O)","PP>OBJ",4,"eher natürlich",6958,913790,91,"test"
136,"t16_1",1,"t16","COM(O)","PP>OBJ",2,"eher unnatürlich",10278,162832,19,"test"
201,"t16_1",1,"t16","COM(O)","PP>OBJ",5,"vollkommen natürlich",6902,842785,105,"test"
183,"t16_1",1,"t16","COM(O)","PP>OBJ",1,"vollkommen unnatürlich",16866,239741,15,"test"
179,"t16_1",1,"t16","COM(O)","PP>OBJ",4,"eher natürlich",9643,327564,36,"test"
206,"t16_1",1,"t16","COM(O)","PP>OBJ",2,"eher unnatürlich",13851,101533,8,"test"
199,"t16_1",1,"t16","COM(O)","PP>OBJ",2,"eher unnatürlich",13791,394653,28,"test"
200,"t16_1",1,"t16","COM(O)","PP>OBJ",2,"eher unnatürlich",7054,484271,43,"test"
156,"t16_2",2,"t16","COM(O)","OBJ>PP",2,"eher unnatürlich",10515,286420,21,"test"
182,"t16_2",2,"t16","COM(O)","OBJ>PP",4,"eher natürlich",11165,262793,23,"test"
166,"t16_2",2,"t16","COM(O)","OBJ>PP",5,"vollkommen natürlich",5212,121903,18,"test"
135,"t16_2",2,"t16","COM(O)","OBJ>PP",4,"eher natürlich",6424,212256,26,"test"
161,"t16_2",2,"t16","COM(O)","OBJ>PP",3,"keine Tendenz",15260,490679,45,"test"
133,"t16_2",2,"t16","COM(O)","OBJ>PP",4,"eher natürlich",12235,116034,9,"test"
163,"t16_2",2,"t16","COM(O)","OBJ>PP",4,"eher natürlich",10027,98456,12,"test"
165,"t16_2",2,"t16","COM(O)","OBJ>PP",2,"eher unnatürlich",5132,309776,38,"test"
176,"t16_2",2,"t16","COM(O)","OBJ>PP",5,"vollkommen natürlich",10124,114965,11,"test"
149,"t16_2",2,"t16","COM(O)","OBJ>PP",4,"eher natürlich",8876,828539,54,"test"
151,"t16_2",2,"t16","COM(O)","OBJ>PP",4,"eher natürlich",5470,141922,17,"test"
157,"t16_2",2,"t16","COM(O)","OBJ>PP",4,"eher natürlich",4218,386512,37,"test"
169,"t16_2",2,"t16","COM(O)","OBJ>PP",5,"vollkommen natürlich",3904,212257,31,"test"
162,"t16_2",2,"t16","COM(O)","OBJ>PP",5,"vollkommen natürlich",8016,405643,41,"test"
190,"t16_2",2,"t16","COM(O)","OBJ>PP",2,"eher unnatürlich",5254,213179,29,"test"
184,"t16_2",2,"t16","COM(O)","OBJ>PP",4,"eher natürlich",4556,732719,76,"test"
196,"t16_2",2,"t16","COM(O)","OBJ>PP",5,"vollkommen natürlich",5470,428111,77,"test"
134,"t16_2",2,"t16","COM(O)","OBJ>PP",4,"eher natürlich",5777,693217,91,"test"
149,"t17_1",1,"t17","COM(O)","PP>OBJ",2,"eher unnatürlich",7121,1080147,81,"test"
161,"t17_1",1,"t17","COM(O)","PP>OBJ",3,"keine Tendenz",12633,213590,19,"test"
169,"t17_1",1,"t17","COM(O)","PP>OBJ",4,"eher natürlich",5184,542821,94,"test"
184,"t17_1",1,"t17","COM(O)","PP>OBJ",2,"eher unnatürlich",7902,407434,35,"test"
135,"t17_1",1,"t17","COM(O)","PP>OBJ",3,"keine Tendenz",7362,538414,68,"test"
176,"t17_1",1,"t17","COM(O)","PP>OBJ",4,"eher natürlich",6671,448073,48,"test"
157,"t17_1",1,"t17","COM(O)","PP>OBJ",4,"eher natürlich",5464,720364,75,"test"
156,"t17_1",1,"t17","COM(O)","PP>OBJ",2,"eher unnatürlich",6494,915808,91,"test"
165,"t17_1",1,"t17","COM(O)","PP>OBJ",4,"eher natürlich",8665,250401,28,"test"
163,"t17_1",1,"t17","COM(O)","PP>OBJ",1,"vollkommen unnatürlich",10587,167491,21,"test"
162,"t17_1",1,"t17","COM(O)","PP>OBJ",2,"eher unnatürlich",5594,363357,37,"test"
190,"t17_1",1,"t17","COM(O)","PP>OBJ",3,"keine Tendenz",4807,279299,39,"test"
151,"t17_1",1,"t17","COM(O)","PP>OBJ",2,"eher unnatürlich",14212,520850,62,"test"
182,"t17_1",1,"t17","COM(O)","PP>OBJ",4,"eher natürlich",7553,650273,63,"test"
166,"t17_1",1,"t17","COM(O)","PP>OBJ",4,"eher natürlich",6833,480923,71,"test"
196,"t17_1",1,"t17","COM(O)","PP>OBJ",5,"vollkommen natürlich",5710,509035,90,"test"
133,"t17_1",1,"t17","COM(O)","PP>OBJ",2,"eher unnatürlich",7370,304976,23,"test"
134,"t17_1",1,"t17","COM(O)","PP>OBJ",3,"keine Tendenz",7997,145525,16,"test"
187,"t17_2",2,"t17","COM(O)","OBJ>PP",4,"eher natürlich",11898,483390,58,"test"
168,"t17_2",2,"t17","COM(O)","OBJ>PP",4,"eher natürlich",9774,145161,14,"test"
185,"t17_2",2,"t17","COM(O)","OBJ>PP",4,"eher natürlich",13771,142770,17,"test"
128,"t17_2",2,"t17","COM(O)","OBJ>PP",4,"eher natürlich",6551,809691,72,"test"
167,"t17_2",2,"t17","COM(O)","OBJ>PP",3,"keine Tendenz",6615,602653,65,"test"
210,"t17_2",2,"t17","COM(O)","OBJ>PP",4,"eher natürlich",10710,640621,55,"test"
200,"t17_2",2,"t17","COM(O)","OBJ>PP",5,"vollkommen natürlich",17806,1185550,105,"test"
213,"t17_2",2,"t17","COM(O)","OBJ>PP",4,"eher natürlich",15731,958184,82,"test"
203,"t17_2",2,"t17","COM(O)","OBJ>PP",5,"vollkommen natürlich",5536,719483,71,"test"
215,"t17_2",2,"t17","COM(O)","OBJ>PP",5,"vollkommen natürlich",6071,188260,23,"test"
197,"t17_2",2,"t17","COM(O)","OBJ>PP",5,"vollkommen natürlich",5680,1048355,92,"test"
189,"t17_2",2,"t17","COM(O)","OBJ>PP",4,"eher natürlich",7852,750565,69,"test"
206,"t17_2",2,"t17","COM(O)","OBJ>PP",4,"eher natürlich",15495,903727,103,"test"
201,"t17_2",2,"t17","COM(O)","OBJ>PP",4,"eher natürlich",9837,134063,15,"test"
183,"t17_2",2,"t17","COM(O)","OBJ>PP",4,"eher natürlich",4653,1342106,105,"test"
179,"t17_2",2,"t17","COM(O)","OBJ>PP",4,"eher natürlich",9371,564776,65,"test"
199,"t17_2",2,"t17","COM(O)","OBJ>PP",5,"vollkommen natürlich",13142,1115157,83,"test"
136,"t17_2",2,"t17","COM(O)","OBJ>PP",2,"eher unnatürlich",7666,103721,12,"test"
201,"t18_1",1,"t18","COM(O)","PP>OBJ",1,"vollkommen unnatürlich",8917,307231,39,"test"
185,"t18_1",1,"t18","COM(O)","PP>OBJ",2,"eher unnatürlich",9278,110469,14,"test"
213,"t18_1",1,"t18","COM(O)","PP>OBJ",4,"eher natürlich",15069,286741,21,"test"
168,"t18_1",1,"t18","COM(O)","PP>OBJ",2,"eher unnatürlich",5836,526420,51,"test"
206,"t18_1",1,"t18","COM(O)","PP>OBJ",2,"eher unnatürlich",14538,76185,6,"test"
200,"t18_1",1,"t18","COM(O)","PP>OBJ",4,"eher natürlich",8846,607126,52,"test"
167,"t18_1",1,"t18","COM(O)","PP>OBJ",2,"eher unnatürlich",13824,790805,88,"test"
179,"t18_1",1,"t18","COM(O)","PP>OBJ",2,"eher unnatürlich",6888,253356,28,"test"
136,"t18_1",1,"t18","COM(O)","PP>OBJ",4,"eher natürlich",11310,583169,67,"test"
210,"t18_1",1,"t18","COM(O)","PP>OBJ",2,"eher unnatürlich",14453,699742,60,"test"
199,"t18_1",1,"t18","COM(O)","PP>OBJ",4,"eher natürlich",17318,792517,58,"test"
203,"t18_1",1,"t18","COM(O)","PP>OBJ",4,"eher natürlich",46993,453414,58,"test"
189,"t18_1",1,"t18","COM(O)","PP>OBJ",2,"eher unnatürlich",5169,467365,40,"test"
215,"t18_1",1,"t18","COM(O)","PP>OBJ",5,"vollkommen natürlich",6625,597853,75,"test"
187,"t18_1",1,"t18","COM(O)","PP>OBJ",1,"vollkommen unnatürlich",7957,643426,81,"test"
183,"t18_1",1,"t18","COM(O)","PP>OBJ",1,"vollkommen unnatürlich",13638,1086076,75,"test"
197,"t18_1",1,"t18","COM(O)","PP>OBJ",4,"eher natürlich",19371,556092,39,"test"
128,"t18_1",1,"t18","COM(O)","PP>OBJ",4,"eher natürlich",14393,869917,78,"test"
163,"t18_2",2,"t18","COM(O)","OBJ>PP",2,"eher unnatürlich",6785,455479,63,"test"
190,"t18_2",2,"t18","COM(O)","OBJ>PP",2,"eher unnatürlich",8982,443924,62,"test"
169,"t18_2",2,"t18","COM(O)","OBJ>PP",5,"vollkommen natürlich",3654,285767,45,"test"
165,"t18_2",2,"t18","COM(O)","OBJ>PP",4,"eher natürlich",9390,399383,52,"test"
162,"t18_2",2,"t18","COM(O)","OBJ>PP",5,"vollkommen natürlich",5796,871113,102,"test"
149,"t18_2",2,"t18","COM(O)","OBJ>PP",2,"eher unnatürlich",10153,487449,23,"test"
196,"t18_2",2,"t18","COM(O)","OBJ>PP",4,"eher natürlich",6731,149423,23,"test"
151,"t18_2",2,"t18","COM(O)","OBJ>PP",2,"eher unnatürlich",6702,807815,97,"test"
134,"t18_2",2,"t18","COM(O)","OBJ>PP",4,"eher natürlich",5169,393017,51,"test"
182,"t18_2",2,"t18","COM(O)","OBJ>PP",4,"eher natürlich",6405,1039142,101,"test"
184,"t18_2",2,"t18","COM(O)","OBJ>PP",4,"eher natürlich",8982,327939,28,"test"
156,"t18_2",2,"t18","COM(O)","OBJ>PP",1,"vollkommen unnatürlich",12615,248525,17,"test"
133,"t18_2",2,"t18","COM(O)","OBJ>PP",4,"eher natürlich",8435,1158977,96,"test"
157,"t18_2",2,"t18","COM(O)","OBJ>PP",4,"eher natürlich",5319,354910,32,"test"
161,"t18_2",2,"t18","COM(O)","OBJ>PP",3,"keine Tendenz",14161,1166318,98,"test"
176,"t18_2",2,"t18","COM(O)","OBJ>PP",5,"vollkommen natürlich",10245,577412,66,"test"
166,"t18_2",2,"t18","COM(O)","OBJ>PP",5,"vollkommen natürlich",9143,98590,15,"test"
135,"t18_2",2,"t18","COM(O)","OBJ>PP",2,"eher unnatürlich",7184,308138,39,"test"
190,"t19_1",1,"t19","COM(O)","PP>OBJ",1,"vollkommen unnatürlich",5399,517787,72,"test"
163,"t19_1",1,"t19","COM(O)","PP>OBJ",1,"vollkommen unnatürlich",7395,197760,26,"test"
151,"t19_1",1,"t19","COM(O)","PP>OBJ",3,"keine Tendenz",13325,498257,60,"test"
135,"t19_1",1,"t19","COM(O)","PP>OBJ",1,"vollkommen unnatürlich",6296,870098,105,"test"
162,"t19_1",1,"t19","COM(O)","PP>OBJ",5,"vollkommen natürlich",8163,579871,62,"test"
149,"t19_1",1,"t19","COM(O)","PP>OBJ",1,"vollkommen unnatürlich",6688,592219,34,"test"
161,"t19_1",1,"t19","COM(O)","PP>OBJ",4,"eher natürlich",10683,93182,8,"test"
134,"t19_1",1,"t19","COM(O)","PP>OBJ",3,"keine Tendenz",7694,180285,21,"test"
166,"t19_1",1,"t19","COM(O)","PP>OBJ",4,"eher natürlich",5579,83295,13,"test"
133,"t19_1",1,"t19","COM(O)","PP>OBJ",2,"eher unnatürlich",8767,971123,80,"test"
165,"t19_1",1,"t19","COM(O)","PP>OBJ",2,"eher unnatürlich",5213,319531,40,"test"
196,"t19_1",1,"t19","COM(O)","PP>OBJ",4,"eher natürlich",3820,499450,88,"test"
182,"t19_1",1,"t19","COM(O)","PP>OBJ",4,"eher natürlich",6772,618525,60,"test"
176,"t19_1",1,"t19","COM(O)","PP>OBJ",4,"eher natürlich",8487,395659,41,"test"
169,"t19_1",1,"t19","COM(O)","PP>OBJ",2,"eher unnatürlich",9192,61265,6,"test"
157,"t19_1",1,"t19","COM(O)","PP>OBJ",1,"vollkommen unnatürlich",13137,436877,42,"test"
156,"t19_1",1,"t19","COM(O)","PP>OBJ",2,"eher unnatürlich",13335,533101,47,"test"
184,"t19_1",1,"t19","COM(O)","PP>OBJ",4,"eher natürlich",6310,574978,55,"test"
213,"t19_2",2,"t19","COM(O)","OBJ>PP",3,"keine Tendenz",17442,221134,17,"test"
200,"t19_2",2,"t19","COM(O)","OBJ>PP",4,"eher natürlich",14270,869422,75,"test"
199,"t19_2",2,"t19","COM(O)","OBJ>PP",5,"vollkommen natürlich",15806,714981,52,"test"
179,"t19_2",2,"t19","COM(O)","OBJ>PP",4,"eher natürlich",5441,516358,59,"test"
215,"t19_2",2,"t19","COM(O)","OBJ>PP",5,"vollkommen natürlich",4404,778638,100,"test"
185,"t19_2",2,"t19","COM(O)","OBJ>PP",5,"vollkommen natürlich",5266,637279,69,"test"
206,"t19_2",2,"t19","COM(O)","OBJ>PP",2,"eher unnatürlich",6290,779982,88,"test"
201,"t19_2",2,"t19","COM(O)","OBJ>PP",5,"vollkommen natürlich",6509,147206,17,"test"
168,"t19_2",2,"t19","COM(O)","OBJ>PP",4,"eher natürlich",10348,635186,64,"test"
128,"t19_2",2,"t19","COM(O)","OBJ>PP",4,"eher natürlich",9866,999470,89,"test"
210,"t19_2",2,"t19","COM(O)","OBJ>PP",4,"eher natürlich",8211,657956,57,"test"
197,"t19_2",2,"t19","COM(O)","OBJ>PP",5,"vollkommen natürlich",7508,866796,72,"test"
189,"t19_2",2,"t19","COM(O)","OBJ>PP",4,"eher natürlich",11741,1013318,101,"test"
136,"t19_2",2,"t19","COM(O)","OBJ>PP",2,"eher unnatürlich",6014,203987,25,"test"
167,"t19_2",2,"t19","COM(O)","OBJ>PP",3,"keine Tendenz",5780,767517,86,"test"
183,"t19_2",2,"t19","COM(O)","OBJ>PP",4,"eher natürlich",12616,1166926,83,"test"
203,"t19_2",2,"t19","COM(O)","OBJ>PP",5,"vollkommen natürlich",10254,865609,97,"test"
187,"t19_2",2,"t19","COM(O)","OBJ>PP",4,"eher natürlich",14953,265587,33,"test"
197,"t20_1",1,"t20","COM(O)","PP>OBJ",5,"vollkommen natürlich",10403,909937,76,"test"
168,"t20_1",1,"t20","COM(O)","PP>OBJ",1,"vollkommen unnatürlich",11879,176950,17,"test"
213,"t20_1",1,"t20","COM(O)","PP>OBJ",4,"eher natürlich",12087,537701,45,"test"
128,"t20_1",1,"t20","COM(O)","PP>OBJ",4,"eher natürlich",6570,745133,65,"test"
200,"t20_1",1,"t20","COM(O)","PP>OBJ",4,"eher natürlich",13623,944046,83,"test"
203,"t20_1",1,"t20","COM(O)","PP>OBJ",5,"vollkommen natürlich",5159,255647,36,"test"
187,"t20_1",1,"t20","COM(O)","PP>OBJ",4,"eher natürlich",10659,671274,84,"test"
189,"t20_1",1,"t20","COM(O)","PP>OBJ",4,"eher natürlich",8564,803437,76,"test"
179,"t20_1",1,"t20","COM(O)","PP>OBJ",4,"eher natürlich",9545,666221,78,"test"
136,"t20_1",1,"t20","COM(O)","PP>OBJ",4,"eher natürlich",8905,364778,41,"test"
206,"t20_1",1,"t20","COM(O)","PP>OBJ",4,"eher natürlich",10800,480668,51,"test"
199,"t20_1",1,"t20","COM(O)","PP>OBJ",4,"eher natürlich",17767,215926,16,"test"
167,"t20_1",1,"t20","COM(O)","PP>OBJ",2,"eher unnatürlich",6713,753474,84,"test"
215,"t20_1",1,"t20","COM(O)","PP>OBJ",5,"vollkommen natürlich",7257,565686,70,"test"
185,"t20_1",1,"t20","COM(O)","PP>OBJ",4,"eher natürlich",8530,393246,46,"test"
201,"t20_1",1,"t20","COM(O)","PP>OBJ",4,"eher natürlich",6810,421919,54,"test"
210,"t20_1",1,"t20","COM(O)","PP>OBJ",4,"eher natürlich",10501,1187035,104,"test"
183,"t20_1",1,"t20","COM(O)","PP>OBJ",2,"eher unnatürlich",11630,1055388,73,"test"
161,"t20_2",2,"t20","COM(O)","OBJ>PP",4,"eher natürlich",15700,349856,32,"test"
196,"t20_2",2,"t20","COM(O)","OBJ>PP",5,"vollkommen natürlich",3805,556592,100,"test"
133,"t20_2",2,"t20","COM(O)","OBJ>PP",4,"eher natürlich",21094,206172,16,"test"
135,"t20_2",2,"t20","COM(O)","OBJ>PP",3,"keine Tendenz",8312,776237,94,"test"
162,"t20_2",2,"t20","COM(O)","OBJ>PP",5,"vollkommen natürlich",15373,170766,15,"test"
166,"t20_2",2,"t20","COM(O)","OBJ>PP",5,"vollkommen natürlich",5939,209441,34,"test"
182,"t20_2",2,"t20","COM(O)","OBJ>PP",4,"eher natürlich",9445,477374,45,"test"
149,"t20_2",2,"t20","COM(O)","OBJ>PP",2,"eher unnatürlich",7564,620536,37,"test"
156,"t20_2",2,"t20","COM(O)","OBJ>PP",4,"eher natürlich",10309,661642,61,"test"
157,"t20_2",2,"t20","COM(O)","OBJ>PP",4,"eher natürlich",10033,403779,39,"test"
163,"t20_2",2,"t20","COM(O)","OBJ>PP",2,"eher unnatürlich",16812,228262,29,"test"
176,"t20_2",2,"t20","COM(O)","OBJ>PP",4,"eher natürlich",10168,332803,32,"test"
190,"t20_2",2,"t20","COM(O)","OBJ>PP",4,"eher natürlich",5781,141306,19,"test"
151,"t20_2",2,"t20","COM(O)","OBJ>PP",2,"eher unnatürlich",8195,326253,40,"test"
134,"t20_2",2,"t20","COM(O)","OBJ>PP",4,"eher natürlich",7167,655868,87,"test"
184,"t20_2",2,"t20","COM(O)","OBJ>PP",4,"eher natürlich",16039,390825,33,"test"
169,"t20_2",2,"t20","COM(O)","OBJ>PP",5,"vollkommen natürlich",7030,93529,11,"test"
165,"t20_2",2,"t20","COM(O)","OBJ>PP",4,"eher natürlich",10325,222510,24,"test"
166,"t21_1",1,"t21","COM(O)","PP>OBJ",5,"vollkommen natürlich",9011,494616,73,"test"
157,"t21_1",1,"t21","COM(O)","PP>OBJ",4,"eher natürlich",5994,849840,87,"test"
190,"t21_1",1,"t21","COM(O)","PP>OBJ",2,"eher unnatürlich",4615,458595,65,"test"
163,"t21_1",1,"t21","COM(O)","PP>OBJ",2,"eher unnatürlich",6109,411840,56,"test"
184,"t21_1",1,"t21","COM(O)","PP>OBJ",2,"eher unnatürlich",6600,509412,47,"test"
149,"t21_1",1,"t21","COM(O)","PP>OBJ",4,"eher natürlich",6455,502213,25,"test"
161,"t21_1",1,"t21","COM(O)","PP>OBJ",3,"keine Tendenz",14342,980089,84,"test"
182,"t21_1",1,"t21","COM(O)","PP>OBJ",4,"eher natürlich",6229,767022,78,"test"
135,"t21_1",1,"t21","COM(O)","PP>OBJ",3,"keine Tendenz",6283,165239,20,"test"
133,"t21_1",1,"t21","COM(O)","PP>OBJ",2,"eher unnatürlich",13664,360294,28,"test"
196,"t21_1",1,"t21","COM(O)","PP>OBJ",5,"vollkommen natürlich",5200,134183,20,"test"
162,"t21_1",1,"t21","COM(O)","PP>OBJ",5,"vollkommen natürlich",6374,756269,85,"test"
165,"t21_1",1,"t21","COM(O)","PP>OBJ",4,"eher natürlich",9007,120137,14,"test"
156,"t21_1",1,"t21","COM(O)","PP>OBJ",2,"eher unnatürlich",5609,304907,23,"test"
151,"t21_1",1,"t21","COM(O)","PP>OBJ",4,"eher natürlich",5339,383661,47,"test"
134,"t21_1",1,"t21","COM(O)","PP>OBJ",5,"vollkommen natürlich",9082,101334,10,"test"
176,"t21_1",1,"t21","COM(O)","PP>OBJ",5,"vollkommen natürlich",7545,421418,44,"test"
169,"t21_1",1,"t21","COM(O)","PP>OBJ",5,"vollkommen natürlich",4287,116939,15,"test"
210,"t21_2",2,"t21","COM(O)","OBJ>PP",4,"eher natürlich",10900,167445,13,"test"
203,"t21_2",2,"t21","COM(O)","OBJ>PP",4,"eher natürlich",5711,400984,56,"test"
197,"t21_2",2,"t21","COM(O)","OBJ>PP",5,"vollkommen natürlich",7166,1158276,105,"test"
213,"t21_2",2,"t21","COM(O)","OBJ>PP",4,"eher natürlich",5458,505259,42,"test"
189,"t21_2",2,"t21","COM(O)","OBJ>PP",4,"eher natürlich",11458,991413,99,"test"
201,"t21_2",2,"t21","COM(O)","OBJ>PP",4,"eher natürlich",7132,590399,75,"test"
136,"t21_2",2,"t21","COM(O)","OBJ>PP",2,"eher unnatürlich",6328,455347,51,"test"
168,"t21_2",2,"t21","COM(O)","OBJ>PP",4,"eher natürlich",8410,742718,80,"test"
179,"t21_2",2,"t21","COM(O)","OBJ>PP",4,"eher natürlich",7304,597847,70,"test"
206,"t21_2",2,"t21","COM(O)","OBJ>PP",2,"eher unnatürlich",8624,820112,93,"test"
128,"t21_2",2,"t21","COM(O)","OBJ>PP",3,"keine Tendenz",17468,121476,10,"test"
185,"t21_2",2,"t21","COM(O)","OBJ>PP",5,"vollkommen natürlich",5049,697403,73,"test"
187,"t21_2",2,"t21","COM(O)","OBJ>PP",4,"eher natürlich",8811,705252,88,"test"
199,"t21_2",2,"t21","COM(O)","OBJ>PP",5,"vollkommen natürlich",13727,119502,9,"test"
215,"t21_2",2,"t21","COM(O)","OBJ>PP",5,"vollkommen natürlich",5804,139961,17,"test"
183,"t21_2",2,"t21","COM(O)","OBJ>PP",4,"eher natürlich",9624,1191474,85,"test"
167,"t21_2",2,"t21","COM(O)","OBJ>PP",3,"keine Tendenz",10201,99275,9,"test"
200,"t21_2",2,"t21","COM(O)","OBJ>PP",5,"vollkommen natürlich",9998,338622,28,"test"
203,"t22_1",1,"t22","COM(O)","PP>OBJ",1,"vollkommen unnatürlich",7731,108717,14,"test"
187,"t22_1",1,"t22","COM(O)","PP>OBJ",5,"vollkommen natürlich",16947,825365,103,"test"
189,"t22_1",1,"t22","COM(O)","PP>OBJ",2,"eher unnatürlich",7510,786765,74,"test"
167,"t22_1",1,"t22","COM(O)","PP>OBJ",2,"eher unnatürlich",6868,474909,51,"test"
210,"t22_1",1,"t22","COM(O)","PP>OBJ",4,"eher natürlich",17679,1163895,102,"test"
183,"t22_1",1,"t22","COM(O)","PP>OBJ",1,"vollkommen unnatürlich",11012,792347,54,"test"
197,"t22_1",1,"t22","COM(O)","PP>OBJ",4,"eher natürlich",15751,410999,27,"test"
199,"t22_1",1,"t22","COM(O)","PP>OBJ",3,"keine Tendenz",20447,1219476,91,"test"
128,"t22_1",1,"t22","COM(O)","PP>OBJ",5,"vollkommen natürlich",12018,629274,54,"test"
206,"t22_1",1,"t22","COM(O)","PP>OBJ",4,"eher natürlich",6192,921913,105,"test"
200,"t22_1",1,"t22","COM(O)","PP>OBJ",5,"vollkommen natürlich",19838,762430,66,"test"
136,"t22_1",1,"t22","COM(O)","PP>OBJ",2,"eher unnatürlich",16158,299097,33,"test"
201,"t22_1",1,"t22","COM(O)","PP>OBJ",3,"keine Tendenz",12348,439415,56,"test"
213,"t22_1",1,"t22","COM(O)","PP>OBJ",4,"eher natürlich",10373,370781,28,"test"
215,"t22_1",1,"t22","COM(O)","PP>OBJ",5,"vollkommen natürlich",6379,737651,93,"test"
179,"t22_1",1,"t22","COM(O)","PP>OBJ",5,"vollkommen natürlich",6939,628476,73,"test"
185,"t22_1",1,"t22","COM(O)","PP>OBJ",4,"eher natürlich",12843,193200,23,"test"
168,"t22_1",1,"t22","COM(O)","PP>OBJ",2,"eher unnatürlich",6763,904580,101,"test"
162,"t22_2",2,"t22","COM(O)","OBJ>PP",2,"eher unnatürlich",14522,85308,6,"test"
166,"t22_2",2,"t22","COM(O)","OBJ>PP",5,"vollkommen natürlich",4600,512606,76,"test"
135,"t22_2",2,"t22","COM(O)","OBJ>PP",1,"vollkommen unnatürlich",6783,410886,52,"test"
165,"t22_2",2,"t22","COM(O)","OBJ>PP",4,"eher natürlich",5889,637002,93,"test"
182,"t22_2",2,"t22","COM(O)","OBJ>PP",4,"eher natürlich",10157,130513,11,"test"
196,"t22_2",2,"t22","COM(O)","OBJ>PP",4,"eher natürlich",3637,397024,70,"test"
163,"t22_2",2,"t22","COM(O)","OBJ>PP",4,"eher natürlich",4433,636889,89,"test"
157,"t22_2",2,"t22","COM(O)","OBJ>PP",2,"eher unnatürlich",31249,167226,10,"test"
184,"t22_2",2,"t22","COM(O)","OBJ>PP",4,"eher natürlich",5043,631107,64,"test"
151,"t22_2",2,"t22","COM(O)","OBJ>PP",4,"eher natürlich",8004,683096,82,"test"
169,"t22_2",2,"t22","COM(O)","OBJ>PP",5,"vollkommen natürlich",5144,593923,105,"test"
133,"t22_2",2,"t22","COM(O)","OBJ>PP",3,"keine Tendenz",15485,403987,31,"test"
156,"t22_2",2,"t22","COM(O)","OBJ>PP",2,"eher unnatürlich",9110,368031,30,"test"
134,"t22_2",2,"t22","COM(O)","OBJ>PP",4,"eher natürlich",7420,196014,23,"test"
149,"t22_2",2,"t22","COM(O)","OBJ>PP",5,"vollkommen natürlich",9174,912943,63,"test"
176,"t22_2",2,"t22","COM(O)","OBJ>PP",4,"eher natürlich",11267,760528,88,"test"
161,"t22_2",2,"t22","COM(O)","OBJ>PP",4,"eher natürlich",14056,1119205,94,"test"
190,"t22_2",2,"t22","COM(O)","OBJ>PP",4,"eher natürlich",7543,338796,48,"test"
184,"t23_1",1,"t23","COM(O)","PP>OBJ",4,"eher natürlich",5718,895012,99,"test"
169,"t23_1",1,"t23","COM(O)","PP>OBJ",4,"eher natürlich",4192,502961,88,"test"
165,"t23_1",1,"t23","COM(O)","PP>OBJ",2,"eher unnatürlich",6046,67768,8,"test"
190,"t23_1",1,"t23","COM(O)","PP>OBJ",2,"eher unnatürlich",12310,428171,60,"test"
135,"t23_1",1,"t23","COM(O)","PP>OBJ",4,"eher natürlich",7120,757039,92,"test"
156,"t23_1",1,"t23","COM(O)","PP>OBJ",2,"eher unnatürlich",5236,729959,70,"test"
161,"t23_1",1,"t23","COM(O)","PP>OBJ",5,"vollkommen natürlich",9365,520640,48,"test"
182,"t23_1",1,"t23","COM(O)","PP>OBJ",4,"eher natürlich",5453,878416,92,"test"
162,"t23_1",1,"t23","COM(O)","PP>OBJ",5,"vollkommen natürlich",10451,564391,60,"test"
134,"t23_1",1,"t23","COM(O)","PP>OBJ",4,"eher natürlich",12240,510218,66,"test"
151,"t23_1",1,"t23","COM(O)","PP>OBJ",3,"keine Tendenz",10098,477685,58,"test"
163,"t23_1",1,"t23","COM(O)","PP>OBJ",2,"eher unnatürlich",6360,442125,61,"test"
157,"t23_1",1,"t23","COM(O)","PP>OBJ",2,"eher unnatürlich",6016,223049,17,"test"
176,"t23_1",1,"t23","COM(O)","PP>OBJ",1,"vollkommen unnatürlich",16790,241214,22,"test"
133,"t23_1",1,"t23","COM(O)","PP>OBJ",2,"eher unnatürlich",16978,765534,60,"test"
196,"t23_1",1,"t23","COM(O)","PP>OBJ",3,"keine Tendenz",4496,203183,33,"test"
166,"t23_1",1,"t23","COM(O)","PP>OBJ",4,"eher natürlich",10583,592121,90,"test"
149,"t23_1",1,"t23","COM(O)","PP>OBJ",2,"eher unnatürlich",8953,1011354,73,"test"
187,"t23_2",2,"t23","COM(O)","OBJ>PP",4,"eher natürlich",6750,502953,61,"test"
167,"t23_2",2,"t23","COM(O)","OBJ>PP",4,"eher natürlich",4876,693619,76,"test"
136,"t23_2",2,"t23","COM(O)","OBJ>PP",4,"eher natürlich",8036,757229,87,"test"
199,"t23_2",2,"t23","COM(O)","OBJ>PP",5,"vollkommen natürlich",11998,750253,55,"test"
128,"t23_2",2,"t23","COM(O)","OBJ>PP",4,"eher natürlich",7258,1123496,102,"test"
189,"t23_2",2,"t23","COM(O)","OBJ>PP",4,"eher natürlich",11438,654302,59,"test"
201,"t23_2",2,"t23","COM(O)","OBJ>PP",5,"vollkommen natürlich",6309,655536,83,"test"
215,"t23_2",2,"t23","COM(O)","OBJ>PP",5,"vollkommen natürlich",6852,682569,86,"test"
200,"t23_2",2,"t23","COM(O)","OBJ>PP",4,"eher natürlich",8566,509215,46,"test"
185,"t23_2",2,"t23","COM(O)","OBJ>PP",5,"vollkommen natürlich",4353,718544,77,"test"
203,"t23_2",2,"t23","COM(O)","OBJ>PP",4,"eher natürlich",4862,837593,93,"test"
206,"t23_2",2,"t23","COM(O)","OBJ>PP",2,"eher unnatürlich",7937,197228,19,"test"
210,"t23_2",2,"t23","COM(O)","OBJ>PP",5,"vollkommen natürlich",14658,1135724,100,"test"
168,"t23_2",2,"t23","COM(O)","OBJ>PP",5,"vollkommen natürlich",7029,59825,6,"test"
179,"t23_2",2,"t23","COM(O)","OBJ>PP",4,"eher natürlich",6047,271651,30,"test"
197,"t23_2",2,"t23","COM(O)","OBJ>PP",5,"vollkommen natürlich",7127,948860,79,"test"
213,"t23_2",2,"t23","COM(O)","OBJ>PP",4,"eher natürlich",20833,415255,32,"test"
183,"t23_2",2,"t23","COM(O)","OBJ>PP",4,"eher natürlich",8841,1285718,97,"test"
189,"t24_1",1,"t24","COM(O)","PP>OBJ",4,"eher natürlich",6188,561397,49,"test"
128,"t24_1",1,"t24","COM(O)","PP>OBJ",4,"eher natürlich",6476,1064876,95,"test"
136,"t24_1",1,"t24","COM(O)","PP>OBJ",4,"eher natürlich",6121,74335,8,"test"
167,"t24_1",1,"t24","COM(O)","PP>OBJ",2,"eher unnatürlich",8341,176926,17,"test"
213,"t24_1",1,"t24","COM(O)","PP>OBJ",4,"eher natürlich",8208,923021,79,"test"
187,"t24_1",1,"t24","COM(O)","PP>OBJ",5,"vollkommen natürlich",6377,784654,99,"test"
179,"t24_1",1,"t24","COM(O)","PP>OBJ",4,"eher natürlich",7594,537488,62,"test"
203,"t24_1",1,"t24","COM(O)","PP>OBJ",2,"eher unnatürlich",5753,127735,17,"test"
168,"t24_1",1,"t24","COM(O)","PP>OBJ",2,"eher unnatürlich",7323,865809,97,"test"
206,"t24_1",1,"t24","COM(O)","PP>OBJ",3,"keine Tendenz",8222,609549,65,"test"
201,"t24_1",1,"t24","COM(O)","PP>OBJ",2,"eher unnatürlich",8913,680216,86,"test"
215,"t24_1",1,"t24","COM(O)","PP>OBJ",5,"vollkommen natürlich",7542,388085,49,"test"
197,"t24_1",1,"t24","COM(O)","PP>OBJ",5,"vollkommen natürlich",11055,521239,36,"test"
210,"t24_1",1,"t24","COM(O)","PP>OBJ",4,"eher natürlich",11894,909622,79,"test"
183,"t24_1",1,"t24","COM(O)","PP>OBJ",2,"eher unnatürlich",9634,392745,27,"test"
200,"t24_1",1,"t24","COM(O)","PP>OBJ",2,"eher unnatürlich",9751,1085670,97,"test"
185,"t24_1",1,"t24","COM(O)","PP>OBJ",4,"eher natürlich",6262,355076,40,"test"
199,"t24_1",1,"t24","COM(O)","PP>OBJ",2,"eher unnatürlich",14439,474278,34,"test"
196,"t24_2",2,"t24","COM(O)","OBJ>PP",5,"vollkommen natürlich",4653,535015,95,"test"
135,"t24_2",2,"t24","COM(O)","OBJ>PP",4,"eher natürlich",7303,397339,50,"test"
156,"t24_2",2,"t24","COM(O)","OBJ>PP",1,"vollkommen unnatürlich",8621,91278,8,"test"
163,"t24_2",2,"t24","COM(O)","OBJ>PP",4,"eher natürlich",9234,752594,102,"test"
182,"t24_2",2,"t24","COM(O)","OBJ>PP",5,"vollkommen natürlich",11625,790786,81,"test"
190,"t24_2",2,"t24","COM(O)","OBJ>PP",3,"keine Tendenz",8281,505475,70,"test"
169,"t24_2",2,"t24","COM(O)","OBJ>PP",5,"vollkommen natürlich",4833,493675,86,"test"
151,"t24_2",2,"t24","COM(O)","OBJ>PP",4,"eher natürlich",8718,240203,29,"test"
184,"t24_2",2,"t24","COM(O)","OBJ>PP",4,"eher natürlich",9140,189967,18,"test"
176,"t24_2",2,"t24","COM(O)","OBJ>PP",5,"vollkommen natürlich",7188,128895,13,"test"
149,"t24_2",2,"t24","COM(O)","OBJ>PP",5,"vollkommen natürlich",9850,1256747,102,"test"
166,"t24_2",2,"t24","COM(O)","OBJ>PP",5,"vollkommen natürlich",5357,542886,82,"test"
134,"t24_2",2,"t24","COM(O)","OBJ>PP",4,"eher natürlich",6462,602699,79,"test"
162,"t24_2",2,"t24","COM(O)","OBJ>PP",5,"vollkommen natürlich",8512,651153,72,"test"
165,"t24_2",2,"t24","COM(O)","OBJ>PP",2,"eher unnatürlich",4883,291986,35,"test"
161,"t24_2",2,"t24","COM(O)","OBJ>PP",4,"eher natürlich",17931,1024129,87,"test"
157,"t24_2",2,"t24","COM(O)","OBJ>PP",4,"eher natürlich",6017,676827,69,"test"
133,"t24_2",2,"t24","COM(O)","OBJ>PP",5,"vollkommen natürlich",9083,1054599,85,"test"
149,"t25_1",1,"t25","ILOC","PP>OBJ",2,"eher unnatürlich",13040,1152776,90,"test"
184,"t25_1",1,"t25","ILOC","PP>OBJ",2,"eher unnatürlich",7816,756043,80,"test"
166,"t25_1",1,"t25","ILOC","PP>OBJ",4,"eher natürlich",4540,639899,99,"test"
134,"t25_1",1,"t25","ILOC","PP>OBJ",3,"keine Tendenz",6835,300652,39,"test"
196,"t25_1",1,"t25","ILOC","PP>OBJ",4,"eher natürlich",5575,182783,29,"test"
182,"t25_1",1,"t25","ILOC","PP>OBJ",4,"eher natürlich",10851,229041,20,"test"
161,"t25_1",1,"t25","ILOC","PP>OBJ",3,"keine Tendenz",13971,859609,75,"test"
135,"t25_1",1,"t25","ILOC","PP>OBJ",3,"keine Tendenz",9009,563911,71,"test"
157,"t25_1",1,"t25","ILOC","PP>OBJ",4,"eher natürlich",7264,977335,102,"test"
176,"t25_1",1,"t25","ILOC","PP>OBJ",2,"eher unnatürlich",7322,830532,96,"test"
133,"t25_1",1,"t25","ILOC","PP>OBJ",2,"eher unnatürlich",14090,436460,34,"test"
165,"t25_1",1,"t25","ILOC","PP>OBJ",4,"eher natürlich",10464,84951,10,"test"
162,"t25_1",1,"t25","ILOC","PP>OBJ",1,"vollkommen unnatürlich",9288,255876,24,"test"
156,"t25_1",1,"t25","ILOC","PP>OBJ",2,"eher unnatürlich",11382,829599,81,"test"
163,"t25_1",1,"t25","ILOC","PP>OBJ",2,"eher unnatürlich",5899,397592,54,"test"
169,"t25_1",1,"t25","ILOC","PP>OBJ",5,"vollkommen natürlich",8396,331367,53,"test"
151,"t25_1",1,"t25","ILOC","PP>OBJ",4,"eher natürlich",6286,262309,32,"test"
190,"t25_1",1,"t25","ILOC","PP>OBJ",2,"eher unnatürlich",5094,529738,74,"test"
189,"t25_2",2,"t25","ILOC","OBJ>PP",4,"eher natürlich",9091,598621,52,"test"
128,"t25_2",2,"t25","ILOC","OBJ>PP",4,"eher natürlich",8025,1083806,97,"test"
210,"t25_2",2,"t25","ILOC","OBJ>PP",5,"vollkommen natürlich",13182,831422,72,"test"
206,"t25_2",2,"t25","ILOC","OBJ>PP",4,"eher natürlich",15007,671735,72,"test"
199,"t25_2",2,"t25","ILOC","OBJ>PP",4,"eher natürlich",20462,1369972,103,"test"
213,"t25_2",2,"t25","ILOC","OBJ>PP",4,"eher natürlich",8569,450952,35,"test"
215,"t25_2",2,"t25","ILOC","OBJ>PP",5,"vollkommen natürlich",11235,338713,43,"test"
197,"t25_2",2,"t25","ILOC","OBJ>PP",5,"vollkommen natürlich",13019,689989,53,"test"
201,"t25_2",2,"t25","ILOC","OBJ>PP",4,"eher natürlich",9413,382767,48,"test"
168,"t25_2",2,"t25","ILOC","OBJ>PP",4,"eher natürlich",10390,514676,49,"test"
187,"t25_2",2,"t25","ILOC","OBJ>PP",4,"eher natürlich",15837,322453,39,"test"
183,"t25_2",2,"t25","ILOC","OBJ>PP",4,"eher natürlich",10600,1141044,81,"test"
203,"t25_2",2,"t25","ILOC","OBJ>PP",5,"vollkommen natürlich",5902,678583,63,"test"
136,"t25_2",2,"t25","ILOC","OBJ>PP",4,"eher natürlich",7069,564787,65,"test"
167,"t25_2",2,"t25","ILOC","OBJ>PP",4,"eher natürlich",11488,259756,25,"test"
179,"t25_2",2,"t25","ILOC","OBJ>PP",4,"eher natürlich",8618,759284,89,"test"
185,"t25_2",2,"t25","ILOC","OBJ>PP",5,"vollkommen natürlich",7750,91502,11,"test"
200,"t25_2",2,"t25","ILOC","OBJ>PP",5,"vollkommen natürlich",12382,813998,70,"test"
179,"t26_1",1,"t26","ILOC","PP>OBJ",5,"vollkommen natürlich",10781,718666,85,"test"
206,"t26_1",1,"t26","ILOC","PP>OBJ",4,"eher natürlich",10559,795557,90,"test"
136,"t26_1",1,"t26","ILOC","PP>OBJ",5,"vollkommen natürlich",9008,383002,43,"test"
210,"t26_1",1,"t26","ILOC","PP>OBJ",5,"vollkommen natürlich",14283,1023568,90,"test"
199,"t26_1",1,"t26","ILOC","PP>OBJ",5,"vollkommen natürlich",16414,1255364,94,"test"
201,"t26_1",1,"t26","ILOC","PP>OBJ",5,"vollkommen natürlich",12278,211542,25,"test"
185,"t26_1",1,"t26","ILOC","PP>OBJ",4,"eher natürlich",6320,848527,93,"test"
168,"t26_1",1,"t26","ILOC","PP>OBJ",5,"vollkommen natürlich",10044,240157,23,"test"
215,"t26_1",1,"t26","ILOC","PP>OBJ",5,"vollkommen natürlich",9908,798911,103,"test"
183,"t26_1",1,"t26","ILOC","PP>OBJ",4,"eher natürlich",8029,732256,49,"test"
167,"t26_1",1,"t26","ILOC","PP>OBJ",3,"keine Tendenz",12750,219013,21,"test"
128,"t26_1",1,"t26","ILOC","PP>OBJ",5,"vollkommen natürlich",8022,418257,35,"test"
213,"t26_1",1,"t26","ILOC","PP>OBJ",4,"eher natürlich",10794,644109,54,"test"
197,"t26_1",1,"t26","ILOC","PP>OBJ",5,"vollkommen natürlich",9131,572299,41,"test"
189,"t26_1",1,"t26","ILOC","PP>OBJ",4,"eher natürlich",10876,428021,35,"test"
200,"t26_1",1,"t26","ILOC","PP>OBJ",5,"vollkommen natürlich",15838,847085,73,"test"
203,"t26_1",1,"t26","ILOC","PP>OBJ",5,"vollkommen natürlich",11580,203398,26,"test"
187,"t26_1",1,"t26","ILOC","PP>OBJ",4,"eher natürlich",9661,687107,86,"test"
169,"t26_2",2,"t26","ILOC","OBJ>PP",5,"vollkommen natürlich",5440,482397,84,"test"
135,"t26_2",2,"t26","ILOC","OBJ>PP",5,"vollkommen natürlich",9253,127855,15,"test"
133,"t26_2",2,"t26","ILOC","OBJ>PP",5,"vollkommen natürlich",19572,924932,75,"test"
176,"t26_2",2,"t26","ILOC","OBJ>PP",5,"vollkommen natürlich",13401,643295,74,"test"
165,"t26_2",2,"t26","ILOC","OBJ>PP",5,"vollkommen natürlich",5571,491928,68,"test"
162,"t26_2",2,"t26","ILOC","OBJ>PP",5,"vollkommen natürlich",12365,535820,57,"test"
149,"t26_2",2,"t26","ILOC","OBJ>PP",4,"eher natürlich",20985,571009,31,"test"
157,"t26_2",2,"t26","ILOC","OBJ>PP",4,"eher natürlich",29854,790890,81,"test"
182,"t26_2",2,"t26","ILOC","OBJ>PP",5,"vollkommen natürlich",10372,574897,54,"test"
156,"t26_2",2,"t26","ILOC","OBJ>PP",5,"vollkommen natürlich",16367,579651,52,"test"
166,"t26_2",2,"t26","ILOC","OBJ>PP",5,"vollkommen natürlich",6694,255778,42,"test"
196,"t26_2",2,"t26","ILOC","OBJ>PP",5,"vollkommen natürlich",7346,83072,10,"test"
184,"t26_2",2,"t26","ILOC","OBJ>PP",2,"eher unnatürlich",6017,940353,104,"test"
134,"t26_2",2,"t26","ILOC","OBJ>PP",4,"eher natürlich",8136,458773,60,"test"
161,"t26_2",2,"t26","ILOC","OBJ>PP",5,"vollkommen natürlich",12457,168762,15,"test"
163,"t26_2",2,"t26","ILOC","OBJ>PP",2,"eher unnatürlich",7878,375436,50,"test"
151,"t26_2",2,"t26","ILOC","OBJ>PP",5,"vollkommen natürlich",9915,200415,24,"test"
190,"t26_2",2,"t26","ILOC","OBJ>PP",4,"eher natürlich",10421,77917,10,"test"
196,"t27_1",1,"t27","ILOC","PP>OBJ",5,"vollkommen natürlich",4863,285621,49,"test"
169,"t27_1",1,"t27","ILOC","PP>OBJ",4,"eher natürlich",5138,519221,90,"test"
157,"t27_1",1,"t27","ILOC","PP>OBJ",3,"keine Tendenz",32374,1027072,105,"test"
182,"t27_1",1,"t27","ILOC","PP>OBJ",3,"keine Tendenz",9202,745854,75,"test"
161,"t27_1",1,"t27","ILOC","PP>OBJ",3,"keine Tendenz",15385,467041,43,"test"
134,"t27_1",1,"t27","ILOC","PP>OBJ",2,"eher unnatürlich",11823,363308,47,"test"
149,"t27_1",1,"t27","ILOC","PP>OBJ",2,"eher unnatürlich",7295,985902,70,"test"
163,"t27_1",1,"t27","ILOC","PP>OBJ",2,"eher unnatürlich",12042,612706,85,"test"
190,"t27_1",1,"t27","ILOC","PP>OBJ",3,"keine Tendenz",5290,259550,36,"test"
165,"t27_1",1,"t27","ILOC","PP>OBJ",2,"eher unnatürlich",12333,158394,18,"test"
156,"t27_1",1,"t27","ILOC","PP>OBJ",2,"eher unnatürlich",12590,458742,40,"test"
162,"t27_1",1,"t27","ILOC","PP>OBJ",1,"vollkommen unnatürlich",5901,814440,94,"test"
135,"t27_1",1,"t27","ILOC","PP>OBJ",3,"keine Tendenz",9885,103937,12,"test"
176,"t27_1",1,"t27","ILOC","PP>OBJ",1,"vollkommen unnatürlich",7471,346366,34,"test"
184,"t27_1",1,"t27","ILOC","PP>OBJ",2,"eher unnatürlich",16509,354986,30,"test"
133,"t27_1",1,"t27","ILOC","PP>OBJ",3,"keine Tendenz",74664,606824,46,"test"
166,"t27_1",1,"t27","ILOC","PP>OBJ",4,"eher natürlich",6617,164147,25,"test"
151,"t27_1",1,"t27","ILOC","PP>OBJ",4,"eher natürlich",12362,66604,6,"test"
136,"t27_2",2,"t27","ILOC","OBJ>PP",2,"eher unnatürlich",9901,836566,97,"test"
167,"t27_2",2,"t27","ILOC","OBJ>PP",3,"keine Tendenz",11042,677282,74,"test"
200,"t27_2",2,"t27","ILOC","OBJ>PP",5,"vollkommen natürlich",16070,1057605,94,"test"
128,"t27_2",2,"t27","ILOC","OBJ>PP",1,"vollkommen unnatürlich",13751,183787,15,"test"
199,"t27_2",2,"t27","ILOC","OBJ>PP",3,"keine Tendenz",15502,676165,49,"test"
189,"t27_2",2,"t27","ILOC","OBJ>PP",4,"eher natürlich",12318,329933,25,"test"
168,"t27_2",2,"t27","ILOC","OBJ>PP",2,"eher unnatürlich",10257,468182,43,"test"
185,"t27_2",2,"t27","ILOC","OBJ>PP",4,"eher natürlich",4069,860746,95,"test"
206,"t27_2",2,"t27","ILOC","OBJ>PP",2,"eher unnatürlich",9982,357306,37,"test"
197,"t27_2",2,"t27","ILOC","OBJ>PP",5,"vollkommen natürlich",7376,625958,46,"test"
215,"t27_2",2,"t27","ILOC","OBJ>PP",5,"vollkommen natürlich",10344,429833,54,"test"
179,"t27_2",2,"t27","ILOC","OBJ>PP",4,"eher natürlich",9387,695213,82,"test"
210,"t27_2",2,"t27","ILOC","OBJ>PP",4,"eher natürlich",10950,335981,27,"test"
201,"t27_2",2,"t27","ILOC","OBJ>PP",2,"eher unnatürlich",7976,361339,45,"test"
213,"t27_2",2,"t27","ILOC","OBJ>PP",3,"keine Tendenz",25390,262479,19,"test"
183,"t27_2",2,"t27","ILOC","OBJ>PP",4,"eher natürlich",12132,643650,41,"test"
187,"t27_2",2,"t27","ILOC","OBJ>PP",4,"eher natürlich",6602,567680,71,"test"
203,"t27_2",2,"t27","ILOC","OBJ>PP",2,"eher unnatürlich",8393,770817,80,"test"
136,"t28_1",1,"t28","ILOC","PP>OBJ",4,"eher natürlich",9418,821003,95,"test"
167,"t28_1",1,"t28","ILOC","PP>OBJ",2,"eher unnatürlich",12195,865433,97,"test"
168,"t28_1",1,"t28","ILOC","PP>OBJ",4,"eher natürlich",10634,792045,87,"test"
213,"t28_1",1,"t28","ILOC","PP>OBJ",3,"keine Tendenz",21881,1151282,99,"test"
183,"t28_1",1,"t28","ILOC","PP>OBJ",5,"vollkommen natürlich",15514,673830,44,"test"
199,"t28_1",1,"t28","ILOC","PP>OBJ",4,"eher natürlich",18423,931988,68,"test"
189,"t28_1",1,"t28","ILOC","PP>OBJ",2,"eher unnatürlich",10140,493309,43,"test"
203,"t28_1",1,"t28","ILOC","PP>OBJ",4,"eher natürlich",8105,788938,83,"test"
200,"t28_1",1,"t28","ILOC","PP>OBJ",5,"vollkommen natürlich",14949,981965,87,"test"
210,"t28_1",1,"t28","ILOC","PP>OBJ",5,"vollkommen natürlich",11366,1100210,97,"test"
179,"t28_1",1,"t28","ILOC","PP>OBJ",2,"eher unnatürlich",11668,501290,56,"test"
206,"t28_1",1,"t28","ILOC","PP>OBJ",4,"eher natürlich",19968,577006,61,"test"
187,"t28_1",1,"t28","ILOC","PP>OBJ",4,"eher natürlich",13393,436501,53,"test"
197,"t28_1",1,"t28","ILOC","PP>OBJ",4,"eher natürlich",12583,886622,74,"test"
185,"t28_1",1,"t28","ILOC","PP>OBJ",5,"vollkommen natürlich",10692,517575,62,"test"
201,"t28_1",1,"t28","ILOC","PP>OBJ",5,"vollkommen natürlich",6877,186118,22,"test"
128,"t28_1",1,"t28","ILOC","PP>OBJ",4,"eher natürlich",14814,541875,47,"test"
215,"t28_1",1,"t28","ILOC","PP>OBJ",5,"vollkommen natürlich",6606,656607,82,"test"
134,"t28_2",2,"t28","ILOC","OBJ>PP",3,"keine Tendenz",8803,225269,27,"test"
165,"t28_2",2,"t28","ILOC","OBJ>PP",4,"eher natürlich",10488,456409,61,"test"
190,"t28_2",2,"t28","ILOC","OBJ>PP",4,"eher natürlich",6478,651697,94,"test"
184,"t28_2",2,"t28","ILOC","OBJ>PP",1,"vollkommen unnatürlich",12253,562066,53,"test"
133,"t28_2",2,"t28","ILOC","OBJ>PP",4,"eher natürlich",9805,1083318,88,"test"
156,"t28_2",2,"t28","ILOC","OBJ>PP",4,"eher natürlich",11646,398118,33,"test"
162,"t28_2",2,"t28","ILOC","OBJ>PP",5,"vollkommen natürlich",9578,288668,27,"test"
151,"t28_2",2,"t28","ILOC","OBJ>PP",4,"eher natürlich",7134,620917,75,"test"
157,"t28_2",2,"t28","ILOC","OBJ>PP",4,"eher natürlich",7433,274809,22,"test"
196,"t28_2",2,"t28","ILOC","OBJ>PP",4,"eher natürlich",5943,270089,46,"test"
149,"t28_2",2,"t28","ILOC","OBJ>PP",4,"eher natürlich",12849,294405,9,"test"
166,"t28_2",2,"t28","ILOC","OBJ>PP",5,"vollkommen natürlich",7924,451933,67,"test"
163,"t28_2",2,"t28","ILOC","OBJ>PP",4,"eher natürlich",8350,491118,68,"test"
135,"t28_2",2,"t28","ILOC","OBJ>PP",2,"eher unnatürlich",9130,61007,7,"test"
161,"t28_2",2,"t28","ILOC","OBJ>PP",3,"keine Tendenz",14415,397059,37,"test"
169,"t28_2",2,"t28","ILOC","OBJ>PP",5,"vollkommen natürlich",10308,349511,56,"test"
182,"t28_2",2,"t28","ILOC","OBJ>PP",4,"eher natürlich",10925,295373,26,"test"
176,"t28_2",2,"t28","ILOC","OBJ>PP",5,"vollkommen natürlich",10617,369206,37,"test"
184,"t29_1",1,"t29","ILOC","PP>OBJ",2,"eher unnatürlich",12794,693651,70,"test"
162,"t29_1",1,"t29","ILOC","PP>OBJ",1,"vollkommen unnatürlich",11659,487451,50,"test"
161,"t29_1",1,"t29","ILOC","PP>OBJ",2,"eher unnatürlich",15860,953651,82,"test"
166,"t29_1",1,"t29","ILOC","PP>OBJ",4,"eher natürlich",7510,561482,85,"test"
182,"t29_1",1,"t29","ILOC","PP>OBJ",4,"eher natürlich",15068,456061,43,"test"
134,"t29_1",1,"t29","ILOC","PP>OBJ",3,"keine Tendenz",12247,623879,82,"test"
169,"t29_1",1,"t29","ILOC","PP>OBJ",4,"eher natürlich",8058,278259,43,"test"
163,"t29_1",1,"t29","ILOC","PP>OBJ",1,"vollkommen unnatürlich",5891,183383,24,"test"
133,"t29_1",1,"t29","ILOC","PP>OBJ",3,"keine Tendenz",34855,285184,21,"test"
156,"t29_1",1,"t29","ILOC","PP>OBJ",2,"eher unnatürlich",14722,762522,73,"test"
157,"t29_1",1,"t29","ILOC","PP>OBJ",4,"eher natürlich",17323,827059,84,"test"
196,"t29_1",1,"t29","ILOC","PP>OBJ",4,"eher natürlich",9774,65620,7,"test"
135,"t29_1",1,"t29","ILOC","PP>OBJ",2,"eher unnatürlich",7689,843937,102,"test"
176,"t29_1",1,"t29","ILOC","PP>OBJ",2,"eher unnatürlich",9880,920390,105,"test"
190,"t29_1",1,"t29","ILOC","PP>OBJ",1,"vollkommen unnatürlich",6508,400939,57,"test"
165,"t29_1",1,"t29","ILOC","PP>OBJ",2,"eher unnatürlich",10507,384319,50,"test"
151,"t29_1",1,"t29","ILOC","PP>OBJ",4,"eher natürlich",11012,793600,95,"test"
149,"t29_1",1,"t29","ILOC","PP>OBJ",1,"vollkommen unnatürlich",10820,708974,46,"test"
185,"t29_2",2,"t29","ILOC","OBJ>PP",2,"eher unnatürlich",15339,214375,25,"test"
206,"t29_2",2,"t29","ILOC","OBJ>PP",2,"eher unnatürlich",8324,309285,30,"test"
187,"t29_2",2,"t29","ILOC","OBJ>PP",3,"keine Tendenz",6665,403452,50,"test"
189,"t29_2",2,"t29","ILOC","OBJ>PP",5,"vollkommen natürlich",14228,951694,95,"test"
201,"t29_2",2,"t29","ILOC","OBJ>PP",1,"vollkommen unnatürlich",7900,511247,66,"test"
167,"t29_2",2,"t29","ILOC","OBJ>PP",4,"eher natürlich",15764,512142,54,"test"
197,"t29_2",2,"t29","ILOC","OBJ>PP",5,"vollkommen natürlich",15395,134205,6,"test"
213,"t29_2",2,"t29","ILOC","OBJ>PP",3,"keine Tendenz",11409,581901,48,"test"
179,"t29_2",2,"t29","ILOC","OBJ>PP",2,"eher unnatürlich",11769,390559,43,"test"
128,"t29_2",2,"t29","ILOC","OBJ>PP",4,"eher natürlich",9437,70332,6,"test"
210,"t29_2",2,"t29","ILOC","OBJ>PP",4,"eher natürlich",12165,538918,46,"test"
203,"t29_2",2,"t29","ILOC","OBJ>PP",1,"vollkommen unnatürlich",13036,71658,8,"test"
136,"t29_2",2,"t29","ILOC","OBJ>PP",3,"keine Tendenz",9122,223157,27,"test"
183,"t29_2",2,"t29","ILOC","OBJ>PP",3,"keine Tendenz",20967,846158,58,"test"
199,"t29_2",2,"t29","ILOC","OBJ>PP",4,"eher natürlich",18255,1284269,96,"test"
168,"t29_2",2,"t29","ILOC","OBJ>PP",5,"vollkommen natürlich",7784,486484,45,"test"
200,"t29_2",2,"t29","ILOC","OBJ>PP",4,"eher natürlich",14358,457990,40,"test"
215,"t29_2",2,"t29","ILOC","OBJ>PP",3,"keine Tendenz",11259,623452,78,"test"
136,"t30_1",1,"t30","ILOC","PP>OBJ",4,"eher natürlich",8115,805807,93,"test"
187,"t30_1",1,"t30","ILOC","PP>OBJ",3,"keine Tendenz",5426,291290,36,"test"
200,"t30_1",1,"t30","ILOC","PP>OBJ",2,"eher unnatürlich",10983,1006942,89,"test"
203,"t30_1",1,"t30","ILOC","PP>OBJ",5,"vollkommen natürlich",7044,708404,69,"test"
197,"t30_1",1,"t30","ILOC","PP>OBJ",5,"vollkommen natürlich",9417,969884,82,"test"
185,"t30_1",1,"t30","ILOC","PP>OBJ",4,"eher natürlich",26180,780259,82,"test"
179,"t30_1",1,"t30","ILOC","PP>OBJ",4,"eher natürlich",7320,648346,76,"test"
213,"t30_1",1,"t30","ILOC","PP>OBJ",4,"eher natürlich",10829,322800,24,"test"
189,"t30_1",1,"t30","ILOC","PP>OBJ",3,"keine Tendenz",11861,715694,65,"test"
167,"t30_1",1,"t30","ILOC","PP>OBJ",2,"eher unnatürlich",10388,70300,6,"test"
210,"t30_1",1,"t30","ILOC","PP>OBJ",4,"eher natürlich",21254,136397,10,"test"
199,"t30_1",1,"t30","ILOC","PP>OBJ",4,"eher natürlich",15471,188478,14,"test"
128,"t30_1",1,"t30","ILOC","PP>OBJ",2,"eher unnatürlich",16593,280498,23,"test"
201,"t30_1",1,"t30","ILOC","PP>OBJ",3,"keine Tendenz",18021,779264,96,"test"
215,"t30_1",1,"t30","ILOC","PP>OBJ",5,"vollkommen natürlich",7128,768714,98,"test"
168,"t30_1",1,"t30","ILOC","PP>OBJ",4,"eher natürlich",10065,700543,73,"test"
183,"t30_1",1,"t30","ILOC","PP>OBJ",3,"keine Tendenz",10678,890366,60,"test"
206,"t30_1",1,"t30","ILOC","PP>OBJ",2,"eher unnatürlich",7122,690830,75,"test"
151,"t30_2",2,"t30","ILOC","OBJ>PP",4,"eher natürlich",6981,705861,85,"test"
156,"t30_2",2,"t30","ILOC","OBJ>PP",4,"eher natürlich",15589,490968,43,"test"
190,"t30_2",2,"t30","ILOC","OBJ>PP",3,"keine Tendenz",6844,233211,32,"test"
157,"t30_2",2,"t30","ILOC","OBJ>PP",4,"eher natürlich",12270,949998,99,"test"
165,"t30_2",2,"t30","ILOC","OBJ>PP",4,"eher natürlich",6777,539166,76,"test"
149,"t30_2",2,"t30","ILOC","OBJ>PP",2,"eher unnatürlich",6546,1116468,86,"test"
163,"t30_2",2,"t30","ILOC","OBJ>PP",5,"vollkommen natürlich",9856,360115,48,"test"
182,"t30_2",2,"t30","ILOC","OBJ>PP",3,"keine Tendenz",11342,359978,33,"test"
176,"t30_2",2,"t30","ILOC","OBJ>PP",2,"eher unnatürlich",6097,264636,25,"test"
162,"t30_2",2,"t30","ILOC","OBJ>PP",1,"vollkommen unnatürlich",9337,308289,30,"test"
161,"t30_2",2,"t30","ILOC","OBJ>PP",3,"keine Tendenz",17314,1069850,90,"test"
133,"t30_2",2,"t30","ILOC","OBJ>PP",2,"eher unnatürlich",9447,79911,6,"test"
134,"t30_2",2,"t30","ILOC","OBJ>PP",3,"keine Tendenz",5913,566067,73,"test"
196,"t30_2",2,"t30","ILOC","OBJ>PP",5,"vollkommen natürlich",4278,231795,39,"test"
166,"t30_2",2,"t30","ILOC","OBJ>PP",4,"eher natürlich",6023,651012,101,"test"
184,"t30_2",2,"t30","ILOC","OBJ>PP",2,"eher unnatürlich",5503,803949,87,"test"
169,"t30_2",2,"t30","ILOC","OBJ>PP",2,"eher unnatürlich",7497,378525,62,"test"
135,"t30_2",2,"t30","ILOC","OBJ>PP",4,"eher natürlich",9910,382648,48,"test"
162,"t31_1",1,"t31","ILOC","PP>OBJ",1,"vollkommen unnatürlich",7359,828871,96,"test"
176,"t31_1",1,"t31","ILOC","PP>OBJ",1,"vollkommen unnatürlich",12242,543949,61,"test"
166,"t31_1",1,"t31","ILOC","PP>OBJ",4,"eher natürlich",12533,305944,51,"test"
169,"t31_1",1,"t31","ILOC","PP>OBJ",2,"eher unnatürlich",5826,202897,29,"test"
133,"t31_1",1,"t31","ILOC","PP>OBJ",3,"keine Tendenz",19304,713910,56,"test"
135,"t31_1",1,"t31","ILOC","PP>OBJ",2,"eher unnatürlich",8757,709285,86,"test"
196,"t31_1",1,"t31","ILOC","PP>OBJ",4,"eher natürlich",17418,333126,56,"test"
182,"t31_1",1,"t31","ILOC","PP>OBJ",3,"keine Tendenz",76945,987050,97,"test"
149,"t31_1",1,"t31","ILOC","PP>OBJ",2,"eher unnatürlich",10901,896000,61,"test"
161,"t31_1",1,"t31","ILOC","PP>OBJ",2,"eher unnatürlich",17785,676622,61,"test"
151,"t31_1",1,"t31","ILOC","PP>OBJ",2,"eher unnatürlich",8410,568391,69,"test"
165,"t31_1",1,"t31","ILOC","PP>OBJ",2,"eher unnatürlich",7443,679671,100,"test"
190,"t31_1",1,"t31","ILOC","PP>OBJ",2,"eher unnatürlich",7038,617842,89,"test"
134,"t31_1",1,"t31","ILOC","PP>OBJ",2,"eher unnatürlich",6632,553467,71,"test"
157,"t31_1",1,"t31","ILOC","PP>OBJ",2,"eher unnatürlich",7175,577950,56,"test"
184,"t31_1",1,"t31","ILOC","PP>OBJ",2,"eher unnatürlich",12339,80299,6,"test"
156,"t31_1",1,"t31","ILOC","PP>OBJ",1,"vollkommen unnatürlich",5904,341711,27,"test"
163,"t31_1",1,"t31","ILOC","PP>OBJ",2,"eher unnatürlich",7062,74982,9,"test"
210,"t31_2",2,"t31","ILOC","OBJ>PP",4,"eher natürlich",21990,208365,16,"test"
167,"t31_2",2,"t31","ILOC","OBJ>PP",3,"keine Tendenz",12277,356128,36,"test"
215,"t31_2",2,"t31","ILOC","OBJ>PP",5,"vollkommen natürlich",7358,584849,73,"test"
179,"t31_2",2,"t31","ILOC","OBJ>PP",3,"keine Tendenz",10047,477357,53,"test"
183,"t31_2",2,"t31","ILOC","OBJ>PP",4,"eher natürlich",38639,598157,37,"test"
168,"t31_2",2,"t31","ILOC","OBJ>PP",4,"eher natürlich",8782,684764,71,"test"
189,"t31_2",2,"t31","ILOC","OBJ>PP",4,"eher natürlich",16487,199405,14,"test"
203,"t31_2",2,"t31","ILOC","OBJ>PP",5,"vollkommen natürlich",7606,911188,103,"test"
200,"t31_2",2,"t31","ILOC","OBJ>PP",4,"eher natürlich",22494,558183,49,"test"
201,"t31_2",2,"t31","ILOC","OBJ>PP",4,"eher natürlich",9478,254055,31,"test"
213,"t31_2",2,"t31","ILOC","OBJ>PP",4,"eher natürlich",9190,87882,6,"test"
128,"t31_2",2,"t31","ILOC","OBJ>PP",2,"eher unnatürlich",14072,789623,69,"test"
187,"t31_2",2,"t31","ILOC","OBJ>PP",4,"eher natürlich",5154,99541,12,"test"
199,"t31_2",2,"t31","ILOC","OBJ>PP",4,"eher natürlich",17062,1399764,105,"test"
197,"t31_2",2,"t31","ILOC","OBJ>PP",4,"eher natürlich",11870,1012900,87,"test"
136,"t31_2",2,"t31","ILOC","OBJ>PP",4,"eher natürlich",9725,244508,29,"test"
206,"t31_2",2,"t31","ILOC","OBJ>PP",2,"eher unnatürlich",8558,414581,43,"test"
185,"t31_2",2,"t31","ILOC","OBJ>PP",4,"eher natürlich",5428,942501,105,"test"
200,"t32_1",1,"t32","ILOC","PP>OBJ",4,"eher natürlich",11030,1024542,91,"test"
187,"t32_1",1,"t32","ILOC","PP>OBJ",3,"keine Tendenz",6302,370149,46,"test"
213,"t32_1",1,"t32","ILOC","PP>OBJ",3,"keine Tendenz",9986,1043630,90,"test"
179,"t32_1",1,"t32","ILOC","PP>OBJ",1,"vollkommen unnatürlich",7297,240645,26,"test"
136,"t32_1",1,"t32","ILOC","PP>OBJ",4,"eher natürlich",6515,430414,49,"test"
189,"t32_1",1,"t32","ILOC","PP>OBJ",2,"eher unnatürlich",5812,827797,80,"test"
199,"t32_1",1,"t32","ILOC","PP>OBJ",3,"keine Tendenz",17774,900940,66,"test"
185,"t32_1",1,"t32","ILOC","PP>OBJ",4,"eher natürlich",10739,68134,7,"test"
210,"t32_1",1,"t32","ILOC","PP>OBJ",4,"eher natürlich",12981,403461,33,"test"
201,"t32_1",1,"t32","ILOC","PP>OBJ",2,"eher unnatürlich",6452,791937,98,"test"
167,"t32_1",1,"t32","ILOC","PP>OBJ",2,"eher unnatürlich",6585,732377,81,"test"
168,"t32_1",1,"t32","ILOC","PP>OBJ",2,"eher unnatürlich",12653,589371,59,"test"
215,"t32_1",1,"t32","ILOC","PP>OBJ",2,"eher unnatürlich",7974,94110,10,"test"
128,"t32_1",1,"t32","ILOC","PP>OBJ",4,"eher natürlich",16308,1026698,91,"test"
203,"t32_1",1,"t32","ILOC","PP>OBJ",4,"eher natürlich",8527,336768,46,"test"
206,"t32_1",1,"t32","ILOC","PP>OBJ",2,"eher unnatürlich",9418,878139,101,"test"
183,"t32_1",1,"t32","ILOC","PP>OBJ",4,"eher natürlich",13006,704408,47,"test"
197,"t32_1",1,"t32","ILOC","PP>OBJ",4,"eher natürlich",7695,204455,12,"test"
156,"t32_2",2,"t32","ILOC","OBJ>PP",4,"eher natürlich",10122,546923,49,"test"
161,"t32_2",2,"t32","ILOC","OBJ>PP",5,"vollkommen natürlich",22014,1222508,102,"test"
176,"t32_2",2,"t32","ILOC","OBJ>PP",5,"vollkommen natürlich",9745,700733,80,"test"
169,"t32_2",2,"t32","ILOC","OBJ>PP",4,"eher natürlich",5179,147267,20,"test"
190,"t32_2",2,"t32","ILOC","OBJ>PP",4,"eher natürlich",9053,121923,16,"test"
165,"t32_2",2,"t32","ILOC","OBJ>PP",4,"eher natürlich",9693,194778,21,"test"
184,"t32_2",2,"t32","ILOC","OBJ>PP",2,"eher unnatürlich",6155,611045,61,"test"
149,"t32_2",2,"t32","ILOC","OBJ>PP",4,"eher natürlich",9993,845114,56,"test"
133,"t32_2",2,"t32","ILOC","OBJ>PP",5,"vollkommen natürlich",12120,1254986,104,"test"
134,"t32_2",2,"t32","ILOC","OBJ>PP",4,"eher natürlich",7157,250003,31,"test"
157,"t32_2",2,"t32","ILOC","OBJ>PP",4,"eher natürlich",6613,293845,25,"test"
182,"t32_2",2,"t32","ILOC","OBJ>PP",4,"eher natürlich",9222,517113,48,"test"
163,"t32_2",2,"t32","ILOC","OBJ>PP",2,"eher unnatürlich",7830,662744,92,"test"
162,"t32_2",2,"t32","ILOC","OBJ>PP",5,"vollkommen natürlich",9603,238038,22,"test"
196,"t32_2",2,"t32","ILOC","OBJ>PP",4,"eher natürlich",5366,544374,97,"test"
135,"t32_2",2,"t32","ILOC","OBJ>PP",2,"eher unnatürlich",8543,247500,30,"test"
166,"t32_2",2,"t32","ILOC","OBJ>PP",5,"vollkommen natürlich",5015,172326,27,"test"
151,"t32_2",2,"t32","ILOC","OBJ>PP",4,"eher natürlich",8451,341916,42,"test"
176,"t33_1",1,"t33","ILOC","PP>OBJ",2,"eher unnatürlich",19062,487535,52,"test"
135,"t33_1",1,"t33","ILOC","PP>OBJ",3,"keine Tendenz",8546,743122,90,"test"
162,"t33_1",1,"t33","ILOC","PP>OBJ",5,"vollkommen natürlich",6803,417357,43,"test"
182,"t33_1",1,"t33","ILOC","PP>OBJ",4,"eher natürlich",13597,200302,18,"test"
149,"t33_1",1,"t33","ILOC","PP>OBJ",1,"vollkommen unnatürlich",9724,457820,20,"test"
134,"t33_1",1,"t33","ILOC","PP>OBJ",2,"eher unnatürlich",12481,71194,6,"test"
157,"t33_1",1,"t33","ILOC","PP>OBJ",4,"eher natürlich",16837,498144,47,"test"
151,"t33_1",1,"t33","ILOC","PP>OBJ",4,"eher natürlich",7895,304294,37,"test"
161,"t33_1",1,"t33","ILOC","PP>OBJ",4,"eher natürlich",13932,648559,59,"test"
133,"t33_1",1,"t33","ILOC","PP>OBJ",3,"keine Tendenz",13474,227461,18,"test"
169,"t33_1",1,"t33","ILOC","PP>OBJ",4,"eher natürlich",7816,454775,78,"test"
166,"t33_1",1,"t33","ILOC","PP>OBJ",5,"vollkommen natürlich",7614,42099,6,"test"
190,"t33_1",1,"t33","ILOC","PP>OBJ",3,"keine Tendenz",7343,673994,97,"test"
156,"t33_1",1,"t33","ILOC","PP>OBJ",4,"eher natürlich",10500,1012756,105,"test"
196,"t33_1",1,"t33","ILOC","PP>OBJ",5,"vollkommen natürlich",5793,92349,12,"test"
184,"t33_1",1,"t33","ILOC","PP>OBJ",4,"eher natürlich",14515,495849,45,"test"
165,"t33_1",1,"t33","ILOC","PP>OBJ",4,"eher natürlich",17807,56720,6,"test"
163,"t33_1",1,"t33","ILOC","PP>OBJ",2,"eher unnatürlich",11634,131608,16,"test"
201,"t33_2",2,"t33","ILOC","OBJ>PP",5,"vollkommen natürlich",7482,285631,36,"test"
206,"t33_2",2,"t33","ILOC","OBJ>PP",4,"eher natürlich",12626,286623,28,"test"
215,"t33_2",2,"t33","ILOC","OBJ>PP",5,"vollkommen natürlich",10319,516701,63,"test"
167,"t33_2",2,"t33","ILOC","OBJ>PP",5,"vollkommen natürlich",12470,396388,41,"test"
185,"t33_2",2,"t33","ILOC","OBJ>PP",5,"vollkommen natürlich",9388,379757,44,"test"
136,"t33_2",2,"t33","ILOC","OBJ>PP",4,"eher natürlich",13792,641830,73,"test"
203,"t33_2",2,"t33","ILOC","OBJ>PP",5,"vollkommen natürlich",11105,387924,54,"test"
197,"t33_2",2,"t33","ILOC","OBJ>PP",5,"vollkommen natürlich",9614,812724,66,"test"
200,"t33_2",2,"t33","ILOC","OBJ>PP",4,"eher natürlich",18813,313871,26,"test"
199,"t33_2",2,"t33","ILOC","OBJ>PP",5,"vollkommen natürlich",18079,337205,24,"test"
210,"t33_2",2,"t33","ILOC","OBJ>PP",5,"vollkommen natürlich",16369,988797,87,"test"
168,"t33_2",2,"t33","ILOC","OBJ>PP",5,"vollkommen natürlich",11633,85755,8,"test"
189,"t33_2",2,"t33","ILOC","OBJ>PP",4,"eher natürlich",12501,696901,63,"test"
128,"t33_2",2,"t33","ILOC","OBJ>PP",5,"vollkommen natürlich",10455,402797,33,"test"
183,"t33_2",2,"t33","ILOC","OBJ>PP",4,"eher natürlich",14674,103357,6,"test"
187,"t33_2",2,"t33","ILOC","OBJ>PP",5,"vollkommen natürlich",10533,144806,19,"test"
213,"t33_2",2,"t33","ILOC","OBJ>PP",5,"vollkommen natürlich",11039,345840,26,"test"
179,"t33_2",2,"t33","ILOC","OBJ>PP",4,"eher natürlich",9216,579214,67,"test"
213,"t34_1",1,"t34","ILOC","PP>OBJ",4,"eher natürlich",11456,675029,57,"test"
201,"t34_1",1,"t34","ILOC","PP>OBJ",3,"keine Tendenz",10622,90031,10,"test"
187,"t34_1",1,"t34","ILOC","PP>OBJ",5,"vollkommen natürlich",7845,772397,97,"test"
128,"t34_1",1,"t34","ILOC","PP>OBJ",4,"eher natürlich",8581,1152570,105,"test"
199,"t34_1",1,"t34","ILOC","PP>OBJ",4,"eher natürlich",16431,968708,71,"test"
168,"t34_1",1,"t34","ILOC","PP>OBJ",2,"eher unnatürlich",9491,286894,29,"test"
189,"t34_1",1,"t34","ILOC","PP>OBJ",2,"eher unnatürlich",12130,94284,6,"test"
215,"t34_1",1,"t34","ILOC","PP>OBJ",5,"vollkommen natürlich",5791,305669,39,"test"
203,"t34_1",1,"t34","ILOC","PP>OBJ",2,"eher unnatürlich",9254,52738,6,"test"
200,"t34_1",1,"t34","ILOC","PP>OBJ",4,"eher natürlich",12422,730286,63,"test"
210,"t34_1",1,"t34","ILOC","PP>OBJ",4,"eher natürlich",12277,95917,7,"test"
167,"t34_1",1,"t34","ILOC","PP>OBJ",3,"keine Tendenz",8077,839127,94,"test"
179,"t34_1",1,"t34","ILOC","PP>OBJ",1,"vollkommen unnatürlich",9489,812044,95,"test"
183,"t34_1",1,"t34","ILOC","PP>OBJ",4,"eher natürlich",7162,1307086,99,"test"
206,"t34_1",1,"t34","ILOC","PP>OBJ",3,"keine Tendenz",16064,502454,53,"test"
197,"t34_1",1,"t34","ILOC","PP>OBJ",5,"vollkommen natürlich",15743,159533,8,"test"
185,"t34_1",1,"t34","ILOC","PP>OBJ",4,"eher natürlich",11054,913478,101,"test"
136,"t34_1",1,"t34","ILOC","PP>OBJ",1,"vollkommen unnatürlich",11973,269423,31,"test"
165,"t34_2",2,"t34","ILOC","OBJ>PP",2,"eher unnatürlich",5957,415315,55,"test"
176,"t34_2",2,"t34","ILOC","OBJ>PP",2,"eher unnatürlich",8833,461064,50,"test"
182,"t34_2",2,"t34","ILOC","OBJ>PP",4,"eher natürlich",9819,379274,35,"test"
190,"t34_2",2,"t34","ILOC","OBJ>PP",4,"eher natürlich",5647,243701,34,"test"
151,"t34_2",2,"t34","ILOC","OBJ>PP",4,"eher natürlich",8830,215436,26,"test"
133,"t34_2",2,"t34","ILOC","OBJ>PP",5,"vollkommen natürlich",12941,734635,58,"test"
163,"t34_2",2,"t34","ILOC","OBJ>PP",4,"eher natürlich",16452,704174,96,"test"
162,"t34_2",2,"t34","ILOC","OBJ>PP",5,"vollkommen natürlich",6315,855805,99,"test"
166,"t34_2",2,"t34","ILOC","OBJ>PP",5,"vollkommen natürlich",8039,604903,92,"test"
157,"t34_2",2,"t34","ILOC","OBJ>PP",4,"eher natürlich",11821,601610,58,"test"
161,"t34_2",2,"t34","ILOC","OBJ>PP",4,"eher natürlich",16187,927181,80,"test"
156,"t34_2",2,"t34","ILOC","OBJ>PP",4,"eher natürlich",7418,800485,78,"test"
196,"t34_2",2,"t34","ILOC","OBJ>PP",4,"eher natürlich",7203,384845,67,"test"
134,"t34_2",2,"t34","ILOC","OBJ>PP",4,"eher natürlich",9719,796115,104,"test"
184,"t34_2",2,"t34","ILOC","OBJ>PP",2,"eher unnatürlich",6641,462610,41,"test"
135,"t34_2",2,"t34","ILOC","OBJ>PP",4,"eher natürlich",9876,350809,44,"test"
169,"t34_2",2,"t34","ILOC","OBJ>PP",5,"vollkommen natürlich",5862,421429,71,"test"
149,"t34_2",2,"t34","ILOC","OBJ>PP",4,"eher natürlich",10874,1045610,77,"test"
169,"t35_1",1,"t35","ILOC","PP>OBJ",4,"eher natürlich",10036,300415,47,"test"
162,"t35_1",1,"t35","ILOC","PP>OBJ",1,"vollkommen unnatürlich",13793,740973,83,"test"
156,"t35_1",1,"t35","ILOC","PP>OBJ",1,"vollkommen unnatürlich",16757,149482,12,"test"
166,"t35_1",1,"t35","ILOC","PP>OBJ",5,"vollkommen natürlich",5266,431153,64,"test"
163,"t35_1",1,"t35","ILOC","PP>OBJ",2,"eher unnatürlich",6875,765406,104,"test"
182,"t35_1",1,"t35","ILOC","PP>OBJ",4,"eher natürlich",9726,896046,94,"test"
176,"t35_1",1,"t35","ILOC","PP>OBJ",2,"eher unnatürlich",7200,211526,20,"test"
196,"t35_1",1,"t35","ILOC","PP>OBJ",5,"vollkommen natürlich",4315,295573,51,"test"
133,"t35_1",1,"t35","ILOC","PP>OBJ",4,"eher natürlich",18160,671309,52,"test"
161,"t35_1",1,"t35","ILOC","PP>OBJ",4,"eher natürlich",16745,69602,6,"test"
134,"t35_1",1,"t35","ILOC","PP>OBJ",4,"eher natürlich",10678,675539,89,"test"
135,"t35_1",1,"t35","ILOC","PP>OBJ",2,"eher unnatürlich",9218,447317,56,"test"
190,"t35_1",1,"t35","ILOC","PP>OBJ",2,"eher unnatürlich",11839,320052,45,"test"
184,"t35_1",1,"t35","ILOC","PP>OBJ",1,"vollkommen unnatürlich",8103,782617,84,"test"
