"workerId","itemId","CONDITION_NO","ENCODING","ITEM_FUNCTION","ITEM_SUBGROUP","ANSWER","ANSWER_LABEL","rt","time_elapsed","trial_index"
215,"f50_1",1,"f50","calibration","unrelated",5,"vollkommen natürlich",6122,6131,0
215,"f37_1",1,"f37","calibration","unrelated",5,"vollkommen natürlich",9603,15745,1
215,"f52_3",3,"f52","calibration","unrelated",2,"eher unnatürlich",12174,27925,2
215,"f64_3",3,"f64","calibration","unrelated",4,"eher natürlich",9685,37617,3
215,"f28_2",2,"f28","calibration","pseudo_windef",2,"eher unnatürlich",7542,45165,4
215,"f38_2",2,"f38","calibration","unrelated",2,"eher unnatürlich",7688,52858,5
215,"f20_1",1,"f20","control","unrelated",5,"vollkommen natürlich",8833,70027,7
215,"f30_3",3,"f30","filler","pseudo_windef",2,"eher unnatürlich",7616,77650,8
215,"f62_2",2,"f62","attention","unrelated (pseudo_manner)",2,"eher unnatürlich",8475,86131,9
215,"f35_3",3,"f35","filler","pseudo_windef",5,"vollkommen natürlich",6214,100329,11
215,"f12_1",1,"f12","control","related",5,"vollkommen natürlich",8051,108385,12
215,"f23_2",2,"f23","control","unrelated",2,"eher unnatürlich",7318,122665,14
215,"f27_2",2,"f27","attention","pseudo_windef",2,"eher unnatürlich",5463,128134,15
215,"f06_1",1,"f06","control","related",5,"vollkommen natürlich",6010,134150,16
215,"f33_1",1,"f33","filler","pseudo_windef",5,"vollkommen natürlich",6405,146373,18
215,"f19_2",2,"f19","control","unrelated",2,"eher unnatürlich",6736,153115,19
215,"f04_1",1,"f04","control","related",5,"vollkommen natürlich",17400,176837,21
215,"f29_2",2,"f29","attention","pseudo_windef",2,"eher unnatürlich",5335,182183,22
215,"f14_1",1,"f14","control","unrelated",5,"vollkommen natürlich",4608,192874,24
215,"f65_1",1,"f65","filler","unrelated",5,"vollkommen natürlich",6117,198999,25
215,"f17_2",2,"f17","control","unrelated",2,"eher unnatürlich",5840,204845,26
215,"f31_2",2,"f31","attention","pseudo_windef/TEMP",2,"eher unnatürlich",7667,218958,28
215,"f47_3",3,"f47","filler","unrelated",3,"keine Tendenz",7954,233853,30
215,"f59_2",2,"f59","attention","unrelated",2,"eher unnatürlich",7042,248474,32
215,"f09_2",2,"f09","control","related",1,"vollkommen unnatürlich",8197,256679,33
215,"f42_2",2,"f42","filler","unrelated (pseudo_TEMP)",2,"eher unnatürlich",9640,276190,35
215,"f13_2",2,"f13","control","unrelated",2,"eher unnatürlich",6772,282969,36
215,"f56_3",3,"f56","filler","unrelated (pseudo_CC)",5,"vollkommen natürlich",9660,292635,37
215,"f24_1",1,"f24","control","unrelated",5,"vollkommen natürlich",7231,299871,38
215,"f36_2",2,"f36","attention","pseudo_windef",2,"eher unnatürlich",8903,314578,40
215,"f68_2",2,"f68","attention","unrelated",2,"eher unnatürlich",6837,327472,42
215,"f67_1",1,"f67","filler","unrelated",5,"vollkommen natürlich",6761,345479,44
215,"f55_3",3,"f55","filler","unrelated (pseudo_TEMP)",5,"vollkommen natürlich",5737,365582,46
215,"f34_3",3,"f34","filler","pseudo_windef",5,"vollkommen natürlich",7374,380532,48
215,"f51_2",2,"f51","attention","pseudo_COM/manner",4,"eher natürlich",12137,400227,50
215,"f43_3",3,"f43","filler","unrelated (pseudo_TEMP)",5,"vollkommen natürlich",5920,412605,52
215,"f15_2",2,"f15","control","unrelated",2,"eher unnatürlich",6872,419483,53
215,"f58_3",3,"f58","filler","unrelated",5,"vollkommen natürlich",7044,436881,55
215,"f10_1",1,"f10","control","related",5,"vollkommen natürlich",7346,449460,57
215,"f44_3",3,"f44","filler","unrelated (pseudo_TEMP/CC)",5,"vollkommen natürlich",21991,471456,58
215,"f03_2",2,"f03","control","related",1,"vollkommen unnatürlich",12052,483514,59
215,"f66_3",3,"f66","filler","unrelated",3,"keine Tendenz",6912,490430,60
215,"f61_3",3,"f61","filler","unrelated (pseudo_manner)",5,"vollkommen natürlich",6386,506378,62
215,"f69_3",3,"f69","filler","unrelated",2,"eher unnatürlich",5556,522265,64
215,"f41_1",1,"f41","filler","unrelated",5,"vollkommen natürlich",5994,534627,66
215,"f54_2",2,"f54","filler","pseudo_CC/COM",2,"eher unnatürlich",10742,552183,68
215,"f49_3",3,"f49","filler","unrelated",5,"vollkommen natürlich",6232,558423,69
215,"f63_3",3,"f63","filler","unrelated",2,"eher unnatürlich",4677,570370,71
215,"f07_2",2,"f07","control","related",1,"vollkommen unnatürlich",7108,577485,72
215,"f70_1",1,"f70","filler","unrelated",5,"vollkommen natürlich",6364,591221,74
215,"f01_2",2,"f01","control","related",1,"vollkommen unnatürlich",5132,602996,76
215,"f32_1",1,"f32","filler","pseudo_windef/CC",5,"vollkommen natürlich",9185,612187,77
215,"f02_1",1,"f02","control","related",5,"vollkommen natürlich",7620,631079,79
215,"f39_3",3,"f39","filler","pseudo_manner/COM",5,"vollkommen natürlich",11018,642103,80
215,"f22_1",1,"f22","control","unrelated",5,"vollkommen natürlich",7886,649995,81
215,"f11_2",2,"f11","control","related",1,"vollkommen unnatürlich",7509,664122,83
215,"f40_3",3,"f40","filler","unrelated",5,"vollkommen natürlich",5502,669628,84
215,"f08_1",1,"f08","control","related",5,"vollkommen natürlich",6076,675710,85
215,"f72_2",2,"f72","attention","unrelated",2,"eher unnatürlich",8646,691220,87
215,"f05_2",2,"f05","control","related",1,"vollkommen unnatürlich",7711,705826,89
215,"f60_2",2,"f60","attention","unrelated",2,"eher unnatürlich",10220,716053,90
215,"f46_2",2,"f46","attention","unrelated",2,"eher unnatürlich",8473,724532,91
215,"f16_1",1,"f16","control","unrelated",5,"vollkommen natürlich",6724,731263,92
215,"f18_1",1,"f18","control","unrelated",5,"vollkommen natürlich",6177,743835,94
215,"f57_1",1,"f57","filler","unrelated",5,"vollkommen natürlich",3924,747766,95
215,"f71_2",2,"f71","filler","unrelated",2,"eher unnatürlich",8007,761580,97
215,"f25_3",3,"f25","filler","pseudo_windef",5,"vollkommen natürlich",5505,774227,99
215,"f21_2",2,"f21","control","unrelated",2,"eher unnatürlich",6344,784988,101
215,"f26_1",1,"f26","filler","pseudo_windef",5,"vollkommen natürlich",4001,788996,102
215,"f48_2",2,"f48","attention","unrelated",2,"eher unnatürlich",8718,807637,104
215,"f45_1",1,"f45","filler","unrelated (pseudo_TEMP)",5,"vollkommen natürlich",5319,817931,106
215,"f53_1",1,"f53","filler","pseudo_manner/INSTR",5,"vollkommen natürlich",5933,823872,107
213,"f64_3",3,"f64","calibration","unrelated",2,"eher unnatürlich",14411,14416,0
213,"f52_3",3,"f52","calibration","unrelated",2,"eher unnatürlich",17579,31999,1
213,"f50_1",1,"f50","calibration","unrelated",5,"vollkommen natürlich",10329,42329,2
213,"f28_2",2,"f28","calibration","pseudo_windef",2,"eher unnatürlich",20041,62372,3
213,"f37_1",1,"f37","calibration","unrelated",5,"vollkommen natürlich",11276,73650,4
213,"f38_2",2,"f38","calibration","unrelated",5,"vollkommen natürlich",5036,78689,5
213,"f67_1",1,"f67","filler","unrelated",5,"vollkommen natürlich",12179,100064,7
213,"f41_1",1,"f41","filler","unrelated",5,"vollkommen natürlich",7967,129023,9
213,"f12_1",1,"f12","control","related",4,"eher natürlich",8931,137956,10
213,"f49_3",3,"f49","filler","unrelated",2,"eher unnatürlich",8286,161397,12
213,"f09_2",2,"f09","control","related",1,"vollkommen unnatürlich",11217,172617,13
213,"f24_1",1,"f24","control","unrelated",5,"vollkommen natürlich",6845,187263,15
213,"f46_2",2,"f46","attention","unrelated",2,"eher unnatürlich",16424,203690,16
213,"f51_2",2,"f51","attention","pseudo_COM/manner",1,"vollkommen unnatürlich",15949,237086,18
213,"f69_3",3,"f69","filler","unrelated",2,"eher unnatürlich",9188,271669,20
213,"f06_1",1,"f06","control","related",5,"vollkommen natürlich",13928,300670,22
213,"f35_3",3,"f35","filler","pseudo_windef",5,"vollkommen natürlich",11296,311969,23
213,"f45_1",1,"f45","filler","unrelated (pseudo_TEMP)",5,"vollkommen natürlich",11996,334799,25
213,"f53_1",1,"f53","filler","pseudo_manner/INSTR",5,"vollkommen natürlich",14563,360405,27
213,"f68_2",2,"f68","attention","unrelated",5,"vollkommen natürlich",5790,376573,29
213,"f36_2",2,"f36","attention","pseudo_windef",1,"vollkommen unnatürlich",9866,394420,31
213,"f65_1",1,"f65","filler","unrelated",5,"vollkommen natürlich",16882,432141,33
213,"f08_1",1,"f08","control","related",4,"eher natürlich",10238,442381,34
213,"f55_3",3,"f55","filler","unrelated (pseudo_TEMP)",4,"eher natürlich",10293,461248,36
213,"f63_3",3,"f63","filler","unrelated",2,"eher unnatürlich",8535,477798,38
213,"f70_1",1,"f70","filler","unrelated",5,"vollkommen natürlich",7311,493509,40
213,"f27_2",2,"f27","attention","pseudo_windef",5,"vollkommen natürlich",6288,499799,41
213,"f05_2",2,"f05","control","related",2,"eher unnatürlich",8205,513467,43
213,"f42_2",2,"f42","filler","unrelated (pseudo_TEMP)",1,"vollkommen unnatürlich",12142,525612,44
213,"f19_2",2,"f19","control","unrelated",1,"vollkommen unnatürlich",9967,547670,46
213,"f57_1",1,"f57","filler","unrelated",4,"eher natürlich",22816,570489,47
213,"f23_2",2,"f23","control","unrelated",1,"vollkommen unnatürlich",7575,589479,49
213,"f31_2",2,"f31","attention","pseudo_windef/TEMP",2,"eher unnatürlich",10839,600321,50
213,"f13_2",2,"f13","control","unrelated",1,"vollkommen unnatürlich",15087,615411,51
213,"f66_3",3,"f66","filler","unrelated",4,"eher natürlich",6819,633312,53
213,"f07_2",2,"f07","control","related",2,"eher unnatürlich",9633,653745,55
213,"f33_1",1,"f33","filler","pseudo_windef",5,"vollkommen natürlich",9822,663570,56
213,"f16_1",1,"f16","control","unrelated",5,"vollkommen natürlich",7779,682811,58
213,"f72_2",2,"f72","attention","unrelated",1,"vollkommen unnatürlich",10515,693329,59
213,"f20_1",1,"f20","control","unrelated",5,"vollkommen natürlich",7329,716700,61
213,"f40_3",3,"f40","filler","unrelated",5,"vollkommen natürlich",12427,729130,62
213,"f18_1",1,"f18","control","unrelated",5,"vollkommen natürlich",8288,737421,63
213,"f17_2",2,"f17","control","unrelated",5,"vollkommen natürlich",7276,756280,65
213,"f47_3",3,"f47","filler","unrelated",3,"keine Tendenz",12974,769257,66
213,"f34_3",3,"f34","filler","pseudo_windef",4,"eher natürlich",10746,788389,68
213,"f11_2",2,"f11","control","related",1,"vollkommen unnatürlich",7835,796228,69
213,"f43_3",3,"f43","filler","unrelated (pseudo_TEMP)",3,"keine Tendenz",12349,821312,71
213,"f60_2",2,"f60","attention","unrelated",2,"eher unnatürlich",14855,845509,73
213,"f21_2",2,"f21","control","unrelated",1,"vollkommen unnatürlich",9489,855001,74
213,"f59_2",2,"f59","attention","unrelated",1,"vollkommen unnatürlich",18520,873524,75
213,"f03_2",2,"f03","control","related",2,"eher unnatürlich",11498,897320,77
213,"f62_2",2,"f62","attention","unrelated (pseudo_manner)",3,"keine Tendenz",17487,914810,78
213,"f10_1",1,"f10","control","related",5,"vollkommen natürlich",8012,931036,80
213,"f48_2",2,"f48","attention","unrelated",2,"eher unnatürlich",11410,942450,81
213,"f25_3",3,"f25","filler","pseudo_windef",5,"vollkommen natürlich",10213,968400,83
213,"f14_1",1,"f14","control","unrelated",4,"eher natürlich",7763,985998,85
213,"f58_3",3,"f58","filler","unrelated",3,"keine Tendenz",10420,996422,86
213,"f02_1",1,"f02","control","related",4,"eher natürlich",8029,1020302,88
213,"f71_2",2,"f71","filler","unrelated",1,"vollkommen unnatürlich",13336,1033642,89
213,"f22_1",1,"f22","control","unrelated",5,"vollkommen natürlich",7388,1051021,91
213,"f54_2",2,"f54","filler","pseudo_CC/COM",2,"eher unnatürlich",10514,1061537,92
213,"f39_3",3,"f39","filler","pseudo_manner/COM",4,"eher natürlich",9640,1071181,93
213,"f29_2",2,"f29","attention","pseudo_windef",1,"vollkommen unnatürlich",8796,1079980,94
213,"f32_1",1,"f32","filler","pseudo_windef/CC",4,"eher natürlich",7406,1087391,95
213,"f56_3",3,"f56","filler","unrelated (pseudo_CC)",4,"eher natürlich",11913,1121436,97
213,"f01_2",2,"f01","control","related",1,"vollkommen unnatürlich",7960,1129399,98
213,"f15_2",2,"f15","control","unrelated",2,"eher unnatürlich",10309,1161595,100
213,"f30_3",3,"f30","filler","pseudo_windef",4,"eher natürlich",7261,1168859,101
213,"f61_3",3,"f61","filler","unrelated (pseudo_manner)",5,"vollkommen natürlich",6707,1185233,103
213,"f44_3",3,"f44","filler","unrelated (pseudo_TEMP/CC)",5,"vollkommen natürlich",12121,1205905,105
213,"f04_1",1,"f04","control","related",5,"vollkommen natürlich",10340,1216249,106
213,"f26_1",1,"f26","filler","pseudo_windef",5,"vollkommen natürlich",7640,1223891,107
210,"f52_3",3,"f52","calibration","unrelated",4,"eher natürlich",14763,14766,0
210,"f28_2",2,"f28","calibration","pseudo_windef",2,"eher unnatürlich",10864,25637,1
210,"f38_2",2,"f38","calibration","unrelated",2,"eher unnatürlich",9641,35285,2
210,"f64_3",3,"f64","calibration","unrelated",2,"eher unnatürlich",16459,51749,3
210,"f50_1",1,"f50","calibration","unrelated",5,"vollkommen natürlich",9125,60877,4
210,"f37_1",1,"f37","calibration","unrelated",5,"vollkommen natürlich",10053,70933,5
210,"f53_1",1,"f53","filler","pseudo_manner/INSTR",5,"vollkommen natürlich",12702,83638,6
210,"f66_3",3,"f66","filler","unrelated",4,"eher natürlich",11677,107597,8
210,"f21_2",2,"f21","control","unrelated",2,"eher unnatürlich",7541,115140,9
210,"f47_3",3,"f47","filler","unrelated",4,"eher natürlich",13246,149645,11
210,"f18_1",1,"f18","control","unrelated",5,"vollkommen natürlich",6894,156541,12
210,"f71_2",2,"f71","filler","unrelated",2,"eher unnatürlich",9550,176996,14
210,"f23_2",2,"f23","control","unrelated",2,"eher unnatürlich",9374,186372,15
210,"f67_1",1,"f67","filler","unrelated",5,"vollkommen natürlich",10791,219159,17
210,"f01_2",2,"f01","control","related",2,"eher unnatürlich",13170,232334,18
210,"f29_2",2,"f29","attention","pseudo_windef",1,"vollkommen unnatürlich",15997,256469,20
210,"f27_2",2,"f27","attention","pseudo_windef",5,"vollkommen natürlich",6501,272925,22
210,"f40_3",3,"f40","filler","unrelated",5,"vollkommen natürlich",9893,293717,24
210,"f42_2",2,"f42","filler","unrelated (pseudo_TEMP)",1,"vollkommen unnatürlich",16933,310652,25
210,"f13_2",2,"f13","control","unrelated",2,"eher unnatürlich",14375,325029,26
210,"f69_3",3,"f69","filler","unrelated",4,"eher natürlich",16902,352885,28
210,"f20_1",1,"f20","control","unrelated",5,"vollkommen natürlich",7669,360557,29
210,"f39_3",3,"f39","filler","pseudo_manner/COM",5,"vollkommen natürlich",13422,381141,31
210,"f24_1",1,"f24","control","unrelated",5,"vollkommen natürlich",9331,390477,32
210,"f15_2",2,"f15","control","unrelated",1,"vollkommen unnatürlich",9085,412549,34
210,"f31_2",2,"f31","attention","pseudo_windef/TEMP",1,"vollkommen unnatürlich",14028,426581,35
210,"f57_1",1,"f57","filler","unrelated",5,"vollkommen natürlich",11278,437862,36
210,"f58_3",3,"f58","filler","unrelated",1,"vollkommen unnatürlich",11093,455677,38
210,"f17_2",2,"f17","control","unrelated",1,"vollkommen unnatürlich",6637,469453,40
210,"f32_1",1,"f32","filler","pseudo_windef/CC",5,"vollkommen natürlich",10815,480270,41
210,"f03_2",2,"f03","control","related",1,"vollkommen unnatürlich",12312,492589,42
210,"f19_2",2,"f19","control","unrelated",1,"vollkommen unnatürlich",7405,512581,44
210,"f55_3",3,"f55","filler","unrelated (pseudo_TEMP)",4,"eher natürlich",14165,526749,45
210,"f61_3",3,"f61","filler","unrelated (pseudo_manner)",5,"vollkommen natürlich",11434,550358,47
210,"f48_2",2,"f48","attention","unrelated",1,"vollkommen unnatürlich",13469,572870,49
210,"f04_1",1,"f04","control","related",5,"vollkommen natürlich",9604,582477,50
210,"f65_1",1,"f65","filler","unrelated",5,"vollkommen natürlich",12526,595006,51
210,"f54_2",2,"f54","filler","pseudo_CC/COM",1,"vollkommen unnatürlich",12108,618749,53
210,"f12_1",1,"f12","control","related",4,"eher natürlich",11158,629910,54
210,"f41_1",1,"f41","filler","unrelated",5,"vollkommen natürlich",9118,649742,56
210,"f63_3",3,"f63","filler","unrelated",4,"eher natürlich",13863,671822,58
210,"f05_2",2,"f05","control","related",1,"vollkommen unnatürlich",13462,685285,59
210,"f30_3",3,"f30","filler","pseudo_windef",5,"vollkommen natürlich",17708,717453,61
210,"f43_3",3,"f43","filler","unrelated (pseudo_TEMP)",4,"eher natürlich",8238,739645,63
210,"f07_2",2,"f07","control","related",1,"vollkommen unnatürlich",10237,749885,64
210,"f02_1",1,"f02","control","related",4,"eher natürlich",7406,766502,66
210,"f59_2",2,"f59","attention","unrelated",2,"eher unnatürlich",17190,783694,67
210,"f25_3",3,"f25","filler","pseudo_windef",5,"vollkommen natürlich",9333,801782,69
210,"f56_3",3,"f56","filler","unrelated (pseudo_CC)",5,"vollkommen natürlich",11109,812894,70
210,"f26_1",1,"f26","filler","pseudo_windef",5,"vollkommen natürlich",5342,818237,71
210,"f08_1",1,"f08","control","related",5,"vollkommen natürlich",7540,838965,73
210,"f62_2",2,"f62","attention","unrelated (pseudo_manner)",1,"vollkommen unnatürlich",11726,850693,74
210,"f22_1",1,"f22","control","unrelated",5,"vollkommen natürlich",10053,860749,75
210,"f68_2",2,"f68","attention","unrelated",1,"vollkommen unnatürlich",10485,879932,77
210,"f11_2",2,"f11","control","related",1,"vollkommen unnatürlich",17790,897725,78
210,"f33_1",1,"f33","filler","pseudo_windef",5,"vollkommen natürlich",7355,916980,80
210,"f16_1",1,"f16","control","unrelated",5,"vollkommen natürlich",6956,936969,82
210,"f45_1",1,"f45","filler","unrelated (pseudo_TEMP)",5,"vollkommen natürlich",10169,947140,83
210,"f09_2",2,"f09","control","related",1,"vollkommen unnatürlich",9161,956304,84
210,"f49_3",3,"f49","filler","unrelated",2,"eher unnatürlich",9713,972426,86
210,"f34_3",3,"f34","filler","pseudo_windef",4,"eher natürlich",12381,1001180,88
210,"f14_1",1,"f14","control","unrelated",5,"vollkommen natürlich",8100,1009282,89
210,"f46_2",2,"f46","attention","unrelated",1,"vollkommen unnatürlich",11613,1035184,91
210,"f06_1",1,"f06","control","related",5,"vollkommen natürlich",6892,1057299,93
210,"f35_3",3,"f35","filler","pseudo_windef",5,"vollkommen natürlich",9337,1066638,94
210,"f70_1",1,"f70","filler","unrelated",5,"vollkommen natürlich",10647,1088841,96
210,"f10_1",1,"f10","control","related",5,"vollkommen natürlich",7700,1107912,98
210,"f36_2",2,"f36","attention","pseudo_windef",1,"vollkommen unnatürlich",13148,1121063,99
210,"f72_2",2,"f72","attention","unrelated",1,"vollkommen unnatürlich",10487,1146213,101
210,"f44_3",3,"f44","filler","unrelated (pseudo_TEMP/CC)",4,"eher natürlich",12633,1176531,103
210,"f51_2",2,"f51","attention","pseudo_COM/manner",1,"vollkommen unnatürlich",11573,1198611,105
210,"f60_2",2,"f60","attention","unrelated",1,"vollkommen unnatürlich",10181,1226843,107
206,"f50_1",1,"f50","calibration","unrelated",5,"vollkommen natürlich",8860,8863,0
206,"f64_3",3,"f64","calibration","unrelated",2,"eher unnatürlich",13983,22854,1
206,"f52_3",3,"f52","calibration","unrelated",5,"vollkommen natürlich",7040,29904,2
206,"f38_2",2,"f38","calibration","unrelated",5,"vollkommen natürlich",7161,37070,3
206,"f28_2",2,"f28","calibration","pseudo_windef",1,"vollkommen unnatürlich",10049,47126,4
206,"f37_1",1,"f37","calibration","unrelated",5,"vollkommen natürlich",14511,61643,5
206,"f60_2",2,"f60","attention","unrelated",2,"eher unnatürlich",11481,87674,7
206,"f02_1",1,"f02","control","related",4,"eher natürlich",10347,111888,9
206,"f32_1",1,"f32","filler","pseudo_windef/CC",5,"vollkommen natürlich",7555,119449,10
206,"f35_3",3,"f35","filler","pseudo_windef",5,"vollkommen natürlich",7655,137801,12
206,"f61_3",3,"f61","filler","unrelated (pseudo_manner)",5,"vollkommen natürlich",8439,159933,14
206,"f16_1",1,"f16","control","unrelated",5,"vollkommen natürlich",8542,176025,16
206,"f66_3",3,"f66","filler","unrelated",2,"eher unnatürlich",6769,182798,17
206,"f15_2",2,"f15","control","unrelated",1,"vollkommen unnatürlich",6480,189283,18
206,"f34_3",3,"f34","filler","pseudo_windef",3,"keine Tendenz",10593,207828,20
206,"f01_2",2,"f01","control","related",1,"vollkommen unnatürlich",11181,219014,21
206,"f09_2",2,"f09","control","related",1,"vollkommen unnatürlich",8032,240889,23
206,"f55_3",3,"f55","filler","unrelated (pseudo_TEMP)",5,"vollkommen natürlich",6964,247860,24
206,"f47_3",3,"f47","filler","unrelated",2,"eher unnatürlich",6871,254738,25
206,"f65_1",1,"f65","filler","unrelated",4,"eher natürlich",11243,273991,27
206,"f44_3",3,"f44","filler","unrelated (pseudo_TEMP/CC)",4,"eher natürlich",14326,300955,29
206,"f70_1",1,"f70","filler","unrelated",5,"vollkommen natürlich",7332,316624,31
206,"f26_1",1,"f26","filler","pseudo_windef",5,"vollkommen natürlich",4822,325888,33
206,"f22_1",1,"f22","control","unrelated",5,"vollkommen natürlich",6014,340339,35
206,"f69_3",3,"f69","filler","unrelated",2,"eher unnatürlich",6972,347317,36
206,"f14_1",1,"f14","control","unrelated",4,"eher natürlich",15353,372666,38
206,"f29_2",2,"f29","attention","pseudo_windef",1,"vollkommen unnatürlich",5854,378526,39
206,"f49_3",3,"f49","filler","unrelated",2,"eher unnatürlich",8492,400873,41
206,"f12_1",1,"f12","control","related",5,"vollkommen natürlich",5138,406017,42
206,"f58_3",3,"f58","filler","unrelated",1,"vollkommen unnatürlich",7780,422367,44
206,"f42_2",2,"f42","filler","unrelated (pseudo_TEMP)",5,"vollkommen natürlich",5529,442138,46
206,"f03_2",2,"f03","control","related",1,"vollkommen unnatürlich",9226,456756,48
206,"f51_2",2,"f51","attention","pseudo_COM/manner",5,"vollkommen natürlich",6604,463368,49
206,"f10_1",1,"f10","control","related",4,"eher natürlich",6485,469860,50
206,"f43_3",3,"f43","filler","unrelated (pseudo_TEMP)",5,"vollkommen natürlich",5714,486387,52
206,"f24_1",1,"f24","control","unrelated",4,"eher natürlich",8441,510902,54
206,"f33_1",1,"f33","filler","pseudo_windef",5,"vollkommen natürlich",4512,515419,55
206,"f13_2",2,"f13","control","unrelated",1,"vollkommen unnatürlich",10250,525674,56
206,"f45_1",1,"f45","filler","unrelated (pseudo_TEMP)",5,"vollkommen natürlich",6808,532489,57
206,"f07_2",2,"f07","control","related",1,"vollkommen unnatürlich",6791,546112,59
206,"f53_1",1,"f53","filler","pseudo_manner/INSTR",5,"vollkommen natürlich",10916,557033,60
206,"f21_2",2,"f21","control","unrelated",1,"vollkommen unnatürlich",5850,582862,62
206,"f46_2",2,"f46","attention","unrelated",2,"eher unnatürlich",10382,593250,63
206,"f59_2",2,"f59","attention","unrelated",1,"vollkommen unnatürlich",8065,601322,64
206,"f23_2",2,"f23","control","unrelated",2,"eher unnatürlich",6291,615847,66
206,"f30_3",3,"f30","filler","pseudo_windef",2,"eher unnatürlich",12377,628230,67
206,"f41_1",1,"f41","filler","unrelated",5,"vollkommen natürlich",5179,633416,68
206,"f39_3",3,"f39","filler","pseudo_manner/COM",1,"vollkommen unnatürlich",6033,645897,70
206,"f06_1",1,"f06","control","related",4,"eher natürlich",10818,656721,71
206,"f19_2",2,"f19","control","unrelated",1,"vollkommen unnatürlich",6342,678083,73
206,"f68_2",2,"f68","attention","unrelated",2,"eher unnatürlich",5615,683702,74
206,"f36_2",2,"f36","attention","pseudo_windef",1,"vollkommen unnatürlich",6590,697426,76
206,"f08_1",1,"f08","control","related",4,"eher natürlich",5332,711893,78
206,"f63_3",3,"f63","filler","unrelated",2,"eher unnatürlich",4746,716645,79
206,"f72_2",2,"f72","attention","unrelated",5,"vollkommen natürlich",7151,731139,81
206,"f17_2",2,"f17","control","unrelated",2,"eher unnatürlich",5287,736431,82
206,"f40_3",3,"f40","filler","unrelated",5,"vollkommen natürlich",6307,742744,83
206,"f20_1",1,"f20","control","unrelated",5,"vollkommen natürlich",6479,749227,84
206,"f11_2",2,"f11","control","related",2,"eher unnatürlich",7858,769134,86
206,"f71_2",2,"f71","filler","unrelated",1,"vollkommen unnatürlich",4547,773686,87
206,"f57_1",1,"f57","filler","unrelated",5,"vollkommen natürlich",5004,784992,89
206,"f04_1",1,"f04","control","related",5,"vollkommen natürlich",5573,801137,91
206,"f54_2",2,"f54","filler","pseudo_CC/COM",1,"vollkommen unnatürlich",10341,811483,92
206,"f25_3",3,"f25","filler","pseudo_windef",4,"eher natürlich",5282,825399,94
206,"f05_2",2,"f05","control","related",1,"vollkommen unnatürlich",5721,836039,96
206,"f48_2",2,"f48","attention","unrelated",2,"eher unnatürlich",11620,847664,97
206,"f18_1",1,"f18","control","unrelated",5,"vollkommen natürlich",5766,863079,99
206,"f27_2",2,"f27","attention","pseudo_windef",5,"vollkommen natürlich",5630,868716,100
206,"f31_2",2,"f31","attention","pseudo_windef/TEMP",1,"vollkommen unnatürlich",10085,888227,102
206,"f56_3",3,"f56","filler","unrelated (pseudo_CC)",5,"vollkommen natürlich",11987,915718,104
206,"f62_2",2,"f62","attention","unrelated (pseudo_manner)",2,"eher unnatürlich",9189,931109,106
206,"f67_1",1,"f67","filler","unrelated",3,"keine Tendenz",10241,941355,107
203,"f37_1",1,"f37","calibration","unrelated",5,"vollkommen natürlich",9122,9125,0
203,"f52_3",3,"f52","calibration","unrelated",2,"eher unnatürlich",8546,17674,1
203,"f50_1",1,"f50","calibration","unrelated",5,"vollkommen natürlich",3696,21372,2
203,"f28_2",2,"f28","calibration","pseudo_windef",1,"vollkommen unnatürlich",6740,28113,3
203,"f64_3",3,"f64","calibration","unrelated",1,"vollkommen unnatürlich",10445,38560,4
203,"f38_2",2,"f38","calibration","unrelated",5,"vollkommen natürlich",4920,43482,5
203,"f54_2",2,"f54","filler","pseudo_CC/COM",1,"vollkommen unnatürlich",5882,58621,7
203,"f44_3",3,"f44","filler","unrelated (pseudo_TEMP/CC)",1,"vollkommen unnatürlich",7270,78930,9
203,"f42_2",2,"f42","filler","unrelated (pseudo_TEMP)",1,"vollkommen unnatürlich",4145,83076,10
203,"f22_1",1,"f22","control","unrelated",5,"vollkommen natürlich",4678,94995,12
203,"f47_3",3,"f47","filler","unrelated",5,"vollkommen natürlich",5987,100983,13
203,"f46_2",2,"f46","attention","unrelated",1,"vollkommen unnatürlich",6781,115500,15
203,"f02_1",1,"f02","control","related",4,"eher natürlich",6478,121980,16
203,"f14_1",1,"f14","control","unrelated",5,"vollkommen natürlich",9867,137604,18
203,"f55_3",3,"f55","filler","unrelated (pseudo_TEMP)",2,"eher unnatürlich",5431,143036,19
203,"f01_2",2,"f01","control","related",1,"vollkommen unnatürlich",4452,153135,21
203,"f31_2",2,"f31","attention","pseudo_windef/TEMP",1,"vollkommen unnatürlich",6212,159348,22
203,"f09_2",2,"f09","control","related",1,"vollkommen unnatürlich",4816,164166,23
203,"f60_2",2,"f60","attention","unrelated",1,"vollkommen unnatürlich",20178,191816,25
203,"f69_3",3,"f69","filler","unrelated",1,"vollkommen unnatürlich",3459,206858,27
203,"f45_1",1,"f45","filler","unrelated (pseudo_TEMP)",5,"vollkommen natürlich",5167,217597,29
203,"f23_2",2,"f23","control","unrelated",1,"vollkommen unnatürlich",5023,222621,30
203,"f21_2",2,"f21","control","unrelated",1,"vollkommen unnatürlich",3417,232630,32
203,"f65_1",1,"f65","filler","unrelated",5,"vollkommen natürlich",5447,238079,33
203,"f25_3",3,"f25","filler","pseudo_windef",2,"eher unnatürlich",4641,250485,35
203,"f20_1",1,"f20","control","unrelated",5,"vollkommen natürlich",5480,261129,37
203,"f29_2",2,"f29","attention","pseudo_windef",1,"vollkommen unnatürlich",3950,265081,38
203,"f12_1",1,"f12","control","related",2,"eher unnatürlich",7325,272408,39
203,"f59_2",2,"f59","attention","unrelated",1,"vollkommen unnatürlich",11624,289760,41
203,"f10_1",1,"f10","control","related",4,"eher natürlich",19207,308969,42
203,"f66_3",3,"f66","filler","unrelated",5,"vollkommen natürlich",5187,314157,43
203,"f27_2",2,"f27","attention","pseudo_windef",1,"vollkommen unnatürlich",9053,328238,45
203,"f15_2",2,"f15","control","unrelated",1,"vollkommen unnatürlich",3409,340179,47
203,"f51_2",2,"f51","attention","pseudo_COM/manner",5,"vollkommen natürlich",3899,344080,48
203,"f70_1",1,"f70","filler","unrelated",5,"vollkommen natürlich",5685,349767,49
203,"f30_3",3,"f30","filler","pseudo_windef",5,"vollkommen natürlich",5992,355761,50
203,"f16_1",1,"f16","control","unrelated",5,"vollkommen natürlich",4982,360746,51
203,"f49_3",3,"f49","filler","unrelated",2,"eher unnatürlich",6279,376817,53
203,"f40_3",3,"f40","filler","unrelated",4,"eher natürlich",7345,395271,55
203,"f56_3",3,"f56","filler","unrelated (pseudo_CC)",5,"vollkommen natürlich",5433,406418,57
203,"f32_1",1,"f32","filler","pseudo_windef/CC",5,"vollkommen natürlich",5572,458988,59
203,"f13_2",2,"f13","control","unrelated",1,"vollkommen unnatürlich",3037,462027,60
203,"f72_2",2,"f72","attention","unrelated",1,"vollkommen unnatürlich",121125,672678,62
203,"f19_2",2,"f19","control","unrelated",1,"vollkommen unnatürlich",5023,683607,64
203,"f26_1",1,"f26","filler","pseudo_windef",5,"vollkommen natürlich",3196,686805,65
203,"f08_1",1,"f08","control","related",4,"eher natürlich",4108,696177,67
203,"f33_1",1,"f33","filler","pseudo_windef",5,"vollkommen natürlich",5178,701358,68
203,"f39_3",3,"f39","filler","pseudo_manner/COM",2,"eher unnatürlich",5539,713945,70
203,"f17_2",2,"f17","control","unrelated",1,"vollkommen unnatürlich",3263,722748,72
203,"f57_1",1,"f57","filler","unrelated",5,"vollkommen natürlich",5126,727876,73
203,"f34_3",3,"f34","filler","pseudo_windef",5,"vollkommen natürlich",4416,738975,75
203,"f05_2",2,"f05","control","related",1,"vollkommen unnatürlich",5984,748323,77
203,"f62_2",2,"f62","attention","unrelated (pseudo_manner)",1,"vollkommen unnatürlich",5599,753925,78
203,"f06_1",1,"f06","control","related",5,"vollkommen natürlich",8495,762422,79
203,"f48_2",2,"f48","attention","unrelated",1,"vollkommen unnatürlich",6314,777133,81
203,"f11_2",2,"f11","control","related",1,"vollkommen unnatürlich",3695,780830,82
203,"f03_2",2,"f03","control","related",1,"vollkommen unnatürlich",3508,792448,84
203,"f63_3",3,"f63","filler","unrelated",1,"vollkommen unnatürlich",3443,795893,85
203,"f36_2",2,"f36","attention","pseudo_windef",1,"vollkommen unnatürlich",5282,805798,87
203,"f04_1",1,"f04","control","related",5,"vollkommen natürlich",3752,809553,88
203,"f18_1",1,"f18","control","unrelated",5,"vollkommen natürlich",5510,823097,90
203,"f68_2",2,"f68","attention","unrelated",1,"vollkommen unnatürlich",5483,828584,91
203,"f24_1",1,"f24","control","unrelated",5,"vollkommen natürlich",4142,832729,92
203,"f58_3",3,"f58","filler","unrelated",2,"eher unnatürlich",4162,841757,94
203,"f61_3",3,"f61","filler","unrelated (pseudo_manner)",5,"vollkommen natürlich",5178,855353,96
203,"f71_2",2,"f71","filler","unrelated",1,"vollkommen unnatürlich",5178,870789,98
203,"f07_2",2,"f07","control","related",1,"vollkommen unnatürlich",6895,877686,99
203,"f41_1",1,"f41","filler","unrelated",5,"vollkommen natürlich",4696,882385,100
203,"f67_1",1,"f67","filler","unrelated",5,"vollkommen natürlich",4446,903580,102
203,"f43_3",3,"f43","filler","unrelated (pseudo_TEMP)",2,"eher unnatürlich",6750,917941,104
203,"f53_1",1,"f53","filler","pseudo_manner/INSTR",5,"vollkommen natürlich",6015,928657,106
203,"f35_3",3,"f35","filler","pseudo_windef",5,"vollkommen natürlich",4243,932903,107
201,"f37_1",1,"f37","calibration","unrelated",5,"vollkommen natürlich",8695,8703,0
201,"f52_3",3,"f52","calibration","unrelated",2,"eher unnatürlich",10138,18847,1
201,"f64_3",3,"f64","calibration","unrelated",1,"vollkommen unnatürlich",12155,31007,2
201,"f50_1",1,"f50","calibration","unrelated",5,"vollkommen natürlich",4570,35583,3
201,"f38_2",2,"f38","calibration","unrelated",1,"vollkommen unnatürlich",6204,41790,4
201,"f28_2",2,"f28","calibration","pseudo_windef",1,"vollkommen unnatürlich",7261,49055,5
201,"f17_2",2,"f17","control","unrelated",1,"vollkommen unnatürlich",5174,61694,7
201,"f41_1",1,"f41","filler","unrelated",1,"vollkommen unnatürlich",6917,68615,8
201,"f10_1",1,"f10","control","related",2,"eher unnatürlich",10789,79407,9
201,"f35_3",3,"f35","filler","pseudo_windef",4,"eher natürlich",10850,100886,11
201,"f68_2",2,"f68","attention","unrelated",1,"vollkommen unnatürlich",5925,116776,13
201,"f23_2",2,"f23","control","unrelated",1,"vollkommen unnatürlich",7445,124223,14
201,"f62_2",2,"f62","attention","unrelated (pseudo_manner)",1,"vollkommen unnatürlich",6629,140695,16
201,"f53_1",1,"f53","filler","pseudo_manner/INSTR",4,"eher natürlich",7486,154696,18
201,"f03_2",2,"f03","control","related",2,"eher unnatürlich",7222,171456,20
201,"f27_2",2,"f27","attention","pseudo_windef",2,"eher unnatürlich",7779,179238,21
201,"f49_3",3,"f49","filler","unrelated",2,"eher unnatürlich",7958,194079,23
201,"f06_1",1,"f06","control","related",5,"vollkommen natürlich",5181,199263,24
201,"f43_3",3,"f43","filler","unrelated (pseudo_TEMP)",5,"vollkommen natürlich",5583,217127,26
201,"f16_1",1,"f16","control","unrelated",5,"vollkommen natürlich",5179,222311,27
201,"f39_3",3,"f39","filler","pseudo_manner/COM",5,"vollkommen natürlich",6501,236936,29
201,"f70_1",1,"f70","filler","unrelated",5,"vollkommen natürlich",7636,244574,30
201,"f29_2",2,"f29","attention","pseudo_windef",1,"vollkommen unnatürlich",5412,259472,32
201,"f01_2",2,"f01","control","related",2,"eher unnatürlich",6205,265679,33
201,"f25_3",3,"f25","filler","pseudo_windef",4,"eher natürlich",6751,278144,35
201,"f42_2",2,"f42","filler","unrelated (pseudo_TEMP)",1,"vollkommen unnatürlich",7122,292760,37
201,"f13_2",2,"f13","control","unrelated",1,"vollkommen unnatürlich",5549,298312,38
201,"f69_3",3,"f69","filler","unrelated",1,"vollkommen unnatürlich",13118,320351,40
201,"f05_2",2,"f05","control","related",2,"eher unnatürlich",11798,341271,42
201,"f33_1",1,"f33","filler","pseudo_windef",5,"vollkommen natürlich",6431,347704,43
201,"f20_1",1,"f20","control","unrelated",5,"vollkommen natürlich",5650,353360,44
201,"f67_1",1,"f67","filler","unrelated",5,"vollkommen natürlich",6353,367695,46
201,"f15_2",2,"f15","control","unrelated",1,"vollkommen unnatürlich",5652,373351,47
201,"f57_1",1,"f57","filler","unrelated",5,"vollkommen natürlich",4653,387424,49
201,"f54_2",2,"f54","filler","pseudo_CC/COM",1,"vollkommen unnatürlich",7173,403558,51
201,"f12_1",1,"f12","control","related",5,"vollkommen natürlich",4863,408424,52
201,"f66_3",3,"f66","filler","unrelated",4,"eher natürlich",6676,415104,53
201,"f58_3",3,"f58","filler","unrelated",1,"vollkommen unnatürlich",5141,427064,55
201,"f21_2",2,"f21","control","unrelated",2,"eher unnatürlich",8397,447816,57
201,"f31_2",2,"f31","attention","pseudo_windef/TEMP",1,"vollkommen unnatürlich",7324,455143,58
201,"f09_2",2,"f09","control","related",4,"eher natürlich",9573,472999,60
201,"f55_3",3,"f55","filler","unrelated (pseudo_TEMP)",1,"vollkommen unnatürlich",3349,476352,61
201,"f71_2",2,"f71","filler","unrelated",1,"vollkommen unnatürlich",4773,487288,63
201,"f36_2",2,"f36","attention","pseudo_windef",1,"vollkommen unnatürlich",7517,494807,64
201,"f18_1",1,"f18","control","unrelated",5,"vollkommen natürlich",8533,503343,65
201,"f14_1",1,"f14","control","unrelated",5,"vollkommen natürlich",8206,519455,67
201,"f44_3",3,"f44","filler","unrelated (pseudo_TEMP/CC)",5,"vollkommen natürlich",14014,533471,68
201,"f63_3",3,"f63","filler","unrelated",2,"eher unnatürlich",5114,549431,70
201,"f07_2",2,"f07","control","related",2,"eher unnatürlich",8101,557536,71
201,"f08_1",1,"f08","control","related",4,"eher natürlich",10133,574920,73
201,"f56_3",3,"f56","filler","unrelated (pseudo_CC)",5,"vollkommen natürlich",8341,583263,74
201,"f24_1",1,"f24","control","unrelated",5,"vollkommen natürlich",8238,598640,76
201,"f60_2",2,"f60","attention","unrelated",1,"vollkommen unnatürlich",7230,605872,77
201,"f19_2",2,"f19","control","unrelated",1,"vollkommen unnatürlich",6315,612192,78
201,"f65_1",1,"f65","filler","unrelated",5,"vollkommen natürlich",9364,628263,80
201,"f47_3",3,"f47","filler","unrelated",2,"eher unnatürlich",15013,649224,82
201,"f34_3",3,"f34","filler","pseudo_windef",5,"vollkommen natürlich",10076,665616,84
201,"f22_1",1,"f22","control","unrelated",5,"vollkommen natürlich",5674,671297,85
201,"f59_2",2,"f59","attention","unrelated",1,"vollkommen unnatürlich",8486,688704,87
201,"f02_1",1,"f02","control","related",2,"eher unnatürlich",9051,707959,89
201,"f40_3",3,"f40","filler","unrelated",5,"vollkommen natürlich",6596,714559,90
201,"f46_2",2,"f46","attention","unrelated",1,"vollkommen unnatürlich",7742,722304,91
201,"f61_3",3,"f61","filler","unrelated (pseudo_manner)",5,"vollkommen natürlich",6366,728672,92
201,"f11_2",2,"f11","control","related",2,"eher unnatürlich",11963,753233,94
201,"f32_1",1,"f32","filler","pseudo_windef/CC",5,"vollkommen natürlich",8002,761240,95
201,"f72_2",2,"f72","attention","unrelated",1,"vollkommen unnatürlich",6214,785481,97
201,"f30_3",3,"f30","filler","pseudo_windef",2,"eher unnatürlich",7556,799496,99
201,"f04_1",1,"f04","control","related",3,"keine Tendenz",8573,815863,101
201,"f26_1",1,"f26","filler","pseudo_windef",5,"vollkommen natürlich",7501,823368,102
201,"f51_2",2,"f51","attention","pseudo_COM/manner",5,"vollkommen natürlich",7380,835880,104
201,"f48_2",2,"f48","attention","unrelated",1,"vollkommen unnatürlich",7717,850503,106
201,"f45_1",1,"f45","filler","unrelated (pseudo_TEMP)",5,"vollkommen natürlich",5606,856112,107
200,"f38_2",2,"f38","calibration","unrelated",2,"eher unnatürlich",8635,8640,0
200,"f52_3",3,"f52","calibration","unrelated",2,"eher unnatürlich",10674,19318,1
200,"f64_3",3,"f64","calibration","unrelated",2,"eher unnatürlich",10644,29967,2
200,"f28_2",2,"f28","calibration","pseudo_windef",2,"eher unnatürlich",8765,38735,3
200,"f50_1",1,"f50","calibration","unrelated",5,"vollkommen natürlich",11580,50319,4
200,"f37_1",1,"f37","calibration","unrelated",5,"vollkommen natürlich",14245,64567,5
200,"f48_2",2,"f48","attention","unrelated",2,"eher unnatürlich",10710,75279,6
200,"f46_2",2,"f46","attention","unrelated",2,"eher unnatürlich",10909,102598,8
200,"f12_1",1,"f12","control","related",4,"eher natürlich",17102,119703,9
200,"f68_2",2,"f68","attention","unrelated",2,"eher unnatürlich",9786,140439,11
200,"f08_1",1,"f08","control","related",5,"vollkommen natürlich",13493,153936,12
200,"f21_2",2,"f21","control","unrelated",2,"eher unnatürlich",8510,178350,14
200,"f58_3",3,"f58","filler","unrelated",2,"eher unnatürlich",9839,188191,15
200,"f57_1",1,"f57","filler","unrelated",5,"vollkommen natürlich",16004,204199,16
200,"f63_3",3,"f63","filler","unrelated",4,"eher natürlich",12094,216295,17
200,"f26_1",1,"f26","filler","pseudo_windef",5,"vollkommen natürlich",9199,239208,19
200,"f17_2",2,"f17","control","unrelated",2,"eher unnatürlich",6149,255607,21
200,"f33_1",1,"f33","filler","pseudo_windef",5,"vollkommen natürlich",11454,267062,22
200,"f18_1",1,"f18","control","unrelated",5,"vollkommen natürlich",8422,286016,24
200,"f44_3",3,"f44","filler","unrelated (pseudo_TEMP/CC)",2,"eher unnatürlich",9037,295056,25
200,"f36_2",2,"f36","attention","pseudo_windef",2,"eher unnatürlich",14750,328623,27
200,"f14_1",1,"f14","control","unrelated",5,"vollkommen natürlich",7191,345815,29
200,"f67_1",1,"f67","filler","unrelated",5,"vollkommen natürlich",10749,356566,30
200,"f15_2",2,"f15","control","unrelated",2,"eher unnatürlich",6245,372494,32
200,"f45_1",1,"f45","filler","unrelated (pseudo_TEMP)",5,"vollkommen natürlich",9542,382037,33
200,"f22_1",1,"f22","control","unrelated",5,"vollkommen natürlich",8646,390687,34
200,"f54_2",2,"f54","filler","pseudo_CC/COM",2,"eher unnatürlich",10814,411783,36
200,"f11_2",2,"f11","control","related",1,"vollkommen unnatürlich",12717,424502,37
200,"f71_2",2,"f71","filler","unrelated",2,"eher unnatürlich",6983,443630,39
200,"f23_2",2,"f23","control","unrelated",2,"eher unnatürlich",7391,465382,41
200,"f66_3",3,"f66","filler","unrelated",2,"eher unnatürlich",11831,477215,42
200,"f16_1",1,"f16","control","unrelated",5,"vollkommen natürlich",8661,492934,44
200,"f53_1",1,"f53","filler","pseudo_manner/INSTR",5,"vollkommen natürlich",7710,500646,45
200,"f07_2",2,"f07","control","related",2,"eher unnatürlich",13414,522630,47
200,"f61_3",3,"f61","filler","unrelated (pseudo_manner)",5,"vollkommen natürlich",13055,535687,48
200,"f47_3",3,"f47","filler","unrelated",2,"eher unnatürlich",15053,573237,50
200,"f19_2",2,"f19","control","unrelated",2,"eher unnatürlich",25037,598277,51
200,"f32_1",1,"f32","filler","pseudo_windef/CC",5,"vollkommen natürlich",12069,619198,53
200,"f29_2",2,"f29","attention","pseudo_windef",2,"eher unnatürlich",7334,632470,55
200,"f42_2",2,"f42","filler","unrelated (pseudo_TEMP)",2,"eher unnatürlich",14646,657806,57
200,"f43_3",3,"f43","filler","unrelated (pseudo_TEMP)",4,"eher natürlich",21109,678918,58
200,"f27_2",2,"f27","attention","pseudo_windef",2,"eher unnatürlich",10454,700398,60
200,"f59_2",2,"f59","attention","unrelated",2,"eher unnatürlich",11278,711678,61
200,"f13_2",2,"f13","control","unrelated",2,"eher unnatürlich",6182,717862,62
200,"f01_2",2,"f01","control","related",2,"eher unnatürlich",6895,737182,64
200,"f41_1",1,"f41","filler","unrelated",5,"vollkommen natürlich",5405,742590,65
200,"f56_3",3,"f56","filler","unrelated (pseudo_CC)",5,"vollkommen natürlich",10495,772926,67
200,"f30_3",3,"f30","filler","pseudo_windef",2,"eher unnatürlich",10141,801614,69
200,"f60_2",2,"f60","attention","unrelated",2,"eher unnatürlich",8823,822821,71
200,"f02_1",1,"f02","control","related",5,"vollkommen natürlich",8422,831246,72
200,"f72_2",2,"f72","attention","unrelated",2,"eher unnatürlich",8062,855150,74
200,"f03_2",2,"f03","control","related",2,"eher unnatürlich",8286,877710,76
200,"f69_3",3,"f69","filler","unrelated",2,"eher unnatürlich",8304,886014,77
200,"f35_3",3,"f35","filler","pseudo_windef",4,"eher natürlich",9374,901821,79
200,"f09_2",2,"f09","control","related",2,"eher unnatürlich",7054,920861,81
200,"f31_2",2,"f31","attention","pseudo_windef/TEMP",2,"eher unnatürlich",9559,930422,82
200,"f04_1",1,"f04","control","related",5,"vollkommen natürlich",7246,951294,84
200,"f25_3",3,"f25","filler","pseudo_windef",4,"eher natürlich",9390,960686,85
200,"f20_1",1,"f20","control","unrelated",5,"vollkommen natürlich",6326,967014,86
200,"f40_3",3,"f40","filler","unrelated",4,"eher natürlich",13990,995957,88
200,"f65_1",1,"f65","filler","unrelated",5,"vollkommen natürlich",6565,1013509,90
200,"f49_3",3,"f49","filler","unrelated",4,"eher natürlich",10421,1034965,92
200,"f10_1",1,"f10","control","related",5,"vollkommen natürlich",6567,1041533,93
200,"f70_1",1,"f70","filler","unrelated",5,"vollkommen natürlich",10006,1067614,95
200,"f06_1",1,"f06","control","related",5,"vollkommen natürlich",8300,1075917,96
200,"f62_2",2,"f62","attention","unrelated (pseudo_manner)",2,"eher unnatürlich",22228,1107901,98
200,"f24_1",1,"f24","control","unrelated",5,"vollkommen natürlich",7365,1126557,100
200,"f34_3",3,"f34","filler","pseudo_windef",2,"eher unnatürlich",7998,1134557,101
200,"f05_2",2,"f05","control","related",2,"eher unnatürlich",8975,1157197,103
200,"f51_2",2,"f51","attention","pseudo_COM/manner",2,"eher unnatürlich",10541,1167741,104
200,"f55_3",3,"f55","filler","unrelated (pseudo_TEMP)",2,"eher unnatürlich",16054,1201606,106
200,"f39_3",3,"f39","filler","pseudo_manner/COM",2,"eher unnatürlich",16286,1217894,107
199,"f64_3",3,"f64","calibration","unrelated",1,"vollkommen unnatürlich",13340,13342,0
199,"f28_2",2,"f28","calibration","pseudo_windef",1,"vollkommen unnatürlich",9926,23270,1
199,"f38_2",2,"f38","calibration","unrelated",1,"vollkommen unnatürlich",7895,31166,2
199,"f37_1",1,"f37","calibration","unrelated",5,"vollkommen natürlich",15095,46262,3
199,"f50_1",1,"f50","calibration","unrelated",5,"vollkommen natürlich",8463,54726,4
199,"f52_3",3,"f52","calibration","unrelated",2,"eher unnatürlich",13831,68558,5
199,"f08_1",1,"f08","control","related",5,"vollkommen natürlich",10999,94782,7
199,"f61_3",3,"f61","filler","unrelated (pseudo_manner)",5,"vollkommen natürlich",10991,105774,8
199,"f27_2",2,"f27","attention","pseudo_windef",1,"vollkommen unnatürlich",9311,128814,10
199,"f54_2",2,"f54","filler","pseudo_CC/COM",1,"vollkommen unnatürlich",14943,160966,12
199,"f05_2",2,"f05","control","related",1,"vollkommen unnatürlich",12039,173006,13
199,"f41_1",1,"f41","filler","unrelated",5,"vollkommen natürlich",9679,198158,15
199,"f14_1",1,"f14","control","unrelated",5,"vollkommen natürlich",8535,224462,17
199,"f34_3",3,"f34","filler","pseudo_windef",3,"keine Tendenz",16622,241086,18
199,"f51_2",2,"f51","attention","pseudo_COM/manner",1,"vollkommen unnatürlich",10463,267854,20
199,"f02_1",1,"f02","control","related",4,"eher natürlich",27518,295373,21
199,"f60_2",2,"f60","attention","unrelated",1,"vollkommen unnatürlich",12615,319125,23
199,"f44_3",3,"f44","filler","unrelated (pseudo_TEMP/CC)",3,"keine Tendenz",19999,357205,25
199,"f35_3",3,"f35","filler","pseudo_windef",5,"vollkommen natürlich",10727,380861,27
199,"f06_1",1,"f06","control","related",5,"vollkommen natürlich",11367,406021,29
199,"f40_3",3,"f40","filler","unrelated",5,"vollkommen natürlich",10335,416357,30
199,"f48_2",2,"f48","attention","unrelated",1,"vollkommen unnatürlich",12879,429237,31
199,"f36_2",2,"f36","attention","pseudo_windef",1,"vollkommen unnatürlich",10671,459837,33
199,"f24_1",1,"f24","control","unrelated",5,"vollkommen natürlich",9750,484029,35
199,"f65_1",1,"f65","filler","unrelated",4,"eher natürlich",16270,500302,36
199,"f29_2",2,"f29","attention","pseudo_windef",1,"vollkommen unnatürlich",7894,508198,37
199,"f17_2",2,"f17","control","unrelated",1,"vollkommen unnatürlich",8166,516366,38
199,"f13_2",2,"f13","control","unrelated",1,"vollkommen unnatürlich",13527,548918,40
199,"f59_2",2,"f59","attention","unrelated",1,"vollkommen unnatürlich",17646,566565,41
199,"f32_1",1,"f32","filler","pseudo_windef/CC",4,"eher natürlich",13135,579701,42
199,"f47_3",3,"f47","filler","unrelated",2,"eher unnatürlich",12391,603261,44
199,"f10_1",1,"f10","control","related",5,"vollkommen natürlich",14183,617445,45
199,"f31_2",2,"f31","attention","pseudo_windef/TEMP",1,"vollkommen unnatürlich",14631,644245,47
199,"f12_1",1,"f12","control","related",5,"vollkommen natürlich",16414,660661,48
199,"f01_2",2,"f01","control","related",1,"vollkommen unnatürlich",10086,686253,50
199,"f68_2",2,"f68","attention","unrelated",1,"vollkommen unnatürlich",12918,699173,51
199,"f39_3",3,"f39","filler","pseudo_manner/COM",5,"vollkommen natürlich",14230,729213,53
199,"f19_2",2,"f19","control","unrelated",1,"vollkommen unnatürlich",9039,738253,54
199,"f16_1",1,"f16","control","unrelated",5,"vollkommen natürlich",10166,760421,56
199,"f70_1",1,"f70","filler","unrelated",5,"vollkommen natürlich",14774,775197,57
199,"f22_1",1,"f22","control","unrelated",5,"vollkommen natürlich",10942,803461,59
199,"f66_3",3,"f66","filler","unrelated",2,"eher unnatürlich",14478,817941,60
199,"f30_3",3,"f30","filler","pseudo_windef",5,"vollkommen natürlich",10086,845981,62
199,"f04_1",1,"f04","control","related",5,"vollkommen natürlich",14598,860581,63
199,"f25_3",3,"f25","filler","pseudo_windef",5,"vollkommen natürlich",9726,870309,64
199,"f20_1",1,"f20","control","unrelated",4,"eher natürlich",12854,883165,65
199,"f33_1",1,"f33","filler","pseudo_windef",5,"vollkommen natürlich",12623,913564,67
199,"f21_2",2,"f21","control","unrelated",1,"vollkommen unnatürlich",8022,940012,69
199,"f56_3",3,"f56","filler","unrelated (pseudo_CC)",5,"vollkommen natürlich",12263,952276,70
199,"f57_1",1,"f57","filler","unrelated",5,"vollkommen natürlich",10855,979564,72
199,"f03_2",2,"f03","control","related",1,"vollkommen unnatürlich",9023,988588,73
199,"f26_1",1,"f26","filler","pseudo_windef",5,"vollkommen natürlich",7719,1010940,75
199,"f09_2",2,"f09","control","related",1,"vollkommen unnatürlich",8575,1019517,76
199,"f43_3",3,"f43","filler","unrelated (pseudo_TEMP)",2,"eher unnatürlich",14982,1053476,78
199,"f49_3",3,"f49","filler","unrelated",1,"vollkommen unnatürlich",11071,1080821,80
199,"f42_2",2,"f42","filler","unrelated (pseudo_TEMP)",1,"vollkommen unnatürlich",9246,1102013,82
199,"f63_3",3,"f63","filler","unrelated",1,"vollkommen unnatürlich",7998,1123157,84
199,"f11_2",2,"f11","control","related",1,"vollkommen unnatürlich",6215,1143485,86
199,"f62_2",2,"f62","attention","unrelated (pseudo_manner)",1,"vollkommen unnatürlich",14166,1157652,87
199,"f18_1",1,"f18","control","unrelated",5,"vollkommen natürlich",11678,1189965,89
199,"f71_2",2,"f71","filler","unrelated",1,"vollkommen unnatürlich",9062,1199028,90
199,"f07_2",2,"f07","control","related",1,"vollkommen unnatürlich",6527,1226004,92
199,"f55_3",3,"f55","filler","unrelated (pseudo_TEMP)",2,"eher unnatürlich",12943,1238948,93
199,"f45_1",1,"f45","filler","unrelated (pseudo_TEMP)",5,"vollkommen natürlich",10646,1266012,95
199,"f23_2",2,"f23","control","unrelated",1,"vollkommen unnatürlich",7150,1291420,97
199,"f46_2",2,"f46","attention","unrelated",1,"vollkommen unnatürlich",12670,1304092,98
199,"f58_3",3,"f58","filler","unrelated",1,"vollkommen unnatürlich",9630,1313724,99
199,"f72_2",2,"f72","attention","unrelated",1,"vollkommen unnatürlich",13502,1341492,101
199,"f15_2",2,"f15","control","unrelated",1,"vollkommen unnatürlich",8015,1349509,102
199,"f53_1",1,"f53","filler","pseudo_manner/INSTR",5,"vollkommen natürlich",12727,1382700,104
199,"f67_1",1,"f67","filler","unrelated",5,"vollkommen natürlich",13055,1412820,106
199,"f69_3",3,"f69","filler","unrelated",1,"vollkommen unnatürlich",9030,1421852,107
197,"f37_1",1,"f37","calibration","unrelated",5,"vollkommen natürlich",14824,14828,0
197,"f64_3",3,"f64","calibration","unrelated",2,"eher unnatürlich",24995,39832,1
197,"f50_1",1,"f50","calibration","unrelated",5,"vollkommen natürlich",8954,48790,2
197,"f28_2",2,"f28","calibration","pseudo_windef",1,"vollkommen unnatürlich",16169,64961,3
197,"f52_3",3,"f52","calibration","unrelated",4,"eher natürlich",39002,103969,4
197,"f38_2",2,"f38","calibration","unrelated",1,"vollkommen unnatürlich",14834,118808,5
197,"f67_1",1,"f67","filler","unrelated",5,"vollkommen natürlich",9575,143785,7
197,"f44_3",3,"f44","filler","unrelated (pseudo_TEMP/CC)",4,"eher natürlich",15686,175221,9
197,"f48_2",2,"f48","attention","unrelated",1,"vollkommen unnatürlich",10758,185982,10
197,"f20_1",1,"f20","control","unrelated",5,"vollkommen natürlich",10769,196754,11
197,"f32_1",1,"f32","filler","pseudo_windef/CC",5,"vollkommen natürlich",11442,215902,13
197,"f12_1",1,"f12","control","related",5,"vollkommen natürlich",13071,228978,14
197,"f72_2",2,"f72","attention","unrelated",1,"vollkommen unnatürlich",10075,239056,15
197,"f56_3",3,"f56","filler","unrelated (pseudo_CC)",2,"eher unnatürlich",14096,267148,17
197,"f05_2",2,"f05","control","related",1,"vollkommen unnatürlich",24198,291351,18
197,"f23_2",2,"f23","control","unrelated",1,"vollkommen unnatürlich",16978,317261,20
197,"f57_1",1,"f57","filler","unrelated",5,"vollkommen natürlich",16834,334098,21
197,"f08_1",1,"f08","control","related",5,"vollkommen natürlich",8803,342908,22
197,"f55_3",3,"f55","filler","unrelated (pseudo_TEMP)",4,"eher natürlich",16695,370269,24
197,"f39_3",3,"f39","filler","pseudo_manner/COM",4,"eher natürlich",9869,395244,26
197,"f26_1",1,"f26","filler","pseudo_windef",5,"vollkommen natürlich",4272,415277,28
197,"f14_1",1,"f14","control","unrelated",5,"vollkommen natürlich",4767,420048,29
197,"f59_2",2,"f59","attention","unrelated",1,"vollkommen unnatürlich",8014,448623,31
197,"f02_1",1,"f02","control","related",5,"vollkommen natürlich",9592,458219,32
197,"f31_2",2,"f31","attention","pseudo_windef/TEMP",1,"vollkommen unnatürlich",6497,504490,34
197,"f15_2",2,"f15","control","unrelated",1,"vollkommen unnatürlich",5684,510179,35
197,"f34_3",3,"f34","filler","pseudo_windef",2,"eher unnatürlich",7511,528755,37
197,"f24_1",1,"f24","control","unrelated",5,"vollkommen natürlich",7958,536718,38
197,"f42_2",2,"f42","filler","unrelated (pseudo_TEMP)",1,"vollkommen unnatürlich",7069,563163,40
197,"f65_1",1,"f65","filler","unrelated",5,"vollkommen natürlich",11480,583787,42
197,"f54_2",2,"f54","filler","pseudo_CC/COM",1,"vollkommen unnatürlich",12036,595826,43
197,"f41_1",1,"f41","filler","unrelated",5,"vollkommen natürlich",9343,618577,45
197,"f70_1",1,"f70","filler","unrelated",5,"vollkommen natürlich",6207,632168,47
197,"f27_2",2,"f27","attention","pseudo_windef",1,"vollkommen unnatürlich",5101,642210,49
197,"f03_2",2,"f03","control","related",1,"vollkommen unnatürlich",9772,667068,51
197,"f47_3",3,"f47","filler","unrelated",2,"eher unnatürlich",9895,676964,52
197,"f10_1",1,"f10","control","related",5,"vollkommen natürlich",7191,697184,54
197,"f25_3",3,"f25","filler","pseudo_windef",2,"eher unnatürlich",13193,710381,55
197,"f22_1",1,"f22","control","unrelated",5,"vollkommen natürlich",5445,727137,57
197,"f69_3",3,"f69","filler","unrelated",2,"eher unnatürlich",8674,735813,58
197,"f68_2",2,"f68","attention","unrelated",1,"vollkommen unnatürlich",6307,752077,60
197,"f06_1",1,"f06","control","related",5,"vollkommen natürlich",8623,760704,61
197,"f17_2",2,"f17","control","unrelated",2,"eher unnatürlich",6850,780118,63
197,"f46_2",2,"f46","attention","unrelated",1,"vollkommen unnatürlich",16721,796844,64
197,"f04_1",1,"f04","control","related",5,"vollkommen natürlich",6261,803107,65
197,"f49_3",3,"f49","filler","unrelated",1,"vollkommen unnatürlich",15453,828183,67
197,"f51_2",2,"f51","attention","pseudo_COM/manner",1,"vollkommen unnatürlich",6561,834751,68
197,"f09_2",2,"f09","control","related",1,"vollkommen unnatürlich",6148,849189,70
197,"f60_2",2,"f60","attention","unrelated",1,"vollkommen unnatürlich",10089,859283,71
197,"f29_2",2,"f29","attention","pseudo_windef",1,"vollkommen unnatürlich",7233,874036,73
197,"f43_3",3,"f43","filler","unrelated (pseudo_TEMP)",4,"eher natürlich",12901,899530,75
197,"f21_2",2,"f21","control","unrelated",1,"vollkommen unnatürlich",6818,916758,77
197,"f35_3",3,"f35","filler","pseudo_windef",4,"eher natürlich",24968,941730,78
197,"f13_2",2,"f13","control","unrelated",1,"vollkommen unnatürlich",5188,954054,80
197,"f45_1",1,"f45","filler","unrelated (pseudo_TEMP)",5,"vollkommen natürlich",6403,960461,81
197,"f18_1",1,"f18","control","unrelated",5,"vollkommen natürlich",5817,975705,83
197,"f62_2",2,"f62","attention","unrelated (pseudo_manner)",1,"vollkommen unnatürlich",7469,983178,84
197,"f30_3",3,"f30","filler","pseudo_windef",4,"eher natürlich",7585,1001027,86
197,"f33_1",1,"f33","filler","pseudo_windef",5,"vollkommen natürlich",5519,1018425,88
197,"f58_3",3,"f58","filler","unrelated",2,"eher unnatürlich",10284,1037377,90
197,"f07_2",2,"f07","control","related",1,"vollkommen unnatürlich",5291,1042671,91
197,"f66_3",3,"f66","filler","unrelated",2,"eher unnatürlich",10968,1059327,93
197,"f11_2",2,"f11","control","related",1,"vollkommen unnatürlich",4516,1063845,94
197,"f19_2",2,"f19","control","unrelated",1,"vollkommen unnatürlich",4986,1078225,96
197,"f63_3",3,"f63","filler","unrelated",2,"eher unnatürlich",12093,1090325,97
197,"f53_1",1,"f53","filler","pseudo_manner/INSTR",5,"vollkommen natürlich",10198,1111651,99
197,"f01_2",2,"f01","control","related",1,"vollkommen unnatürlich",6787,1118441,100
197,"f71_2",2,"f71","filler","unrelated",1,"vollkommen unnatürlich",5720,1124164,101
197,"f16_1",1,"f16","control","unrelated",5,"vollkommen natürlich",8644,1143378,103
197,"f61_3",3,"f61","filler","unrelated (pseudo_manner)",5,"vollkommen natürlich",7721,1151105,104
197,"f40_3",3,"f40","filler","unrelated",4,"eher natürlich",5977,1164259,106
197,"f36_2",2,"f36","attention","pseudo_windef",1,"vollkommen unnatürlich",4084,1168346,107
196,"f38_2",2,"f38","calibration","unrelated",1,"vollkommen unnatürlich",10494,10499,0
196,"f37_1",1,"f37","calibration","unrelated",5,"vollkommen natürlich",9987,20494,1
196,"f28_2",2,"f28","calibration","pseudo_windef",1,"vollkommen unnatürlich",7772,28271,2
196,"f64_3",3,"f64","calibration","unrelated",1,"vollkommen unnatürlich",7375,35651,3
196,"f52_3",3,"f52","calibration","unrelated",3,"keine Tendenz",10050,45705,4
196,"f50_1",1,"f50","calibration","unrelated",5,"vollkommen natürlich",4388,50095,5
196,"f24_1",1,"f24","control","unrelated",5,"vollkommen natürlich",5740,55840,6
196,"f55_3",3,"f55","filler","unrelated (pseudo_TEMP)",5,"vollkommen natürlich",4488,70112,8
196,"f05_2",2,"f05","control","related",3,"keine Tendenz",5605,75722,9
196,"f26_1",1,"f26","filler","pseudo_windef",5,"vollkommen natürlich",3476,86552,11
196,"f70_1",1,"f70","filler","unrelated",5,"vollkommen natürlich",4315,96669,13
196,"f13_2",2,"f13","control","unrelated",1,"vollkommen unnatürlich",6272,108151,15
196,"f36_2",2,"f36","attention","pseudo_windef",1,"vollkommen unnatürlich",6640,114796,16
196,"f34_3",3,"f34","filler","pseudo_windef",5,"vollkommen natürlich",4179,124576,18
196,"f17_2",2,"f17","control","unrelated",1,"vollkommen unnatürlich",4397,128978,19
196,"f15_2",2,"f15","control","unrelated",1,"vollkommen unnatürlich",3814,138001,21
196,"f33_1",1,"f33","filler","pseudo_windef",5,"vollkommen natürlich",4683,142688,22
196,"f40_3",3,"f40","filler","unrelated",4,"eher natürlich",7421,156848,24
196,"f10_1",1,"f10","control","related",4,"eher natürlich",4931,161784,25
196,"f63_3",3,"f63","filler","unrelated",3,"keine Tendenz",6056,172096,27
196,"f67_1",1,"f67","filler","unrelated",4,"eher natürlich",5103,177203,28
196,"f02_1",1,"f02","control","related",4,"eher natürlich",3843,186631,30
196,"f46_2",2,"f46","attention","unrelated",1,"vollkommen unnatürlich",7443,194078,31
196,"f07_2",2,"f07","control","related",1,"vollkommen unnatürlich",4601,198683,32
196,"f20_1",1,"f20","control","unrelated",5,"vollkommen natürlich",4878,208065,34
196,"f54_2",2,"f54","filler","pseudo_CC/COM",1,"vollkommen unnatürlich",4631,212700,35
196,"f59_2",2,"f59","attention","unrelated",1,"vollkommen unnatürlich",6100,222503,37
196,"f14_1",1,"f14","control","unrelated",5,"vollkommen natürlich",5005,227512,38
196,"f65_1",1,"f65","filler","unrelated",5,"vollkommen natürlich",5606,237405,40
196,"f62_2",2,"f62","attention","unrelated (pseudo_manner)",2,"eher unnatürlich",8688,250657,42
196,"f27_2",2,"f27","attention","pseudo_windef",5,"vollkommen natürlich",5230,260579,44
196,"f25_3",3,"f25","filler","pseudo_windef",5,"vollkommen natürlich",3558,264142,45
196,"f30_3",3,"f30","filler","pseudo_windef",5,"vollkommen natürlich",5171,275264,47
196,"f23_2",2,"f23","control","unrelated",1,"vollkommen unnatürlich",5486,280754,48
196,"f58_3",3,"f58","filler","unrelated",2,"eher unnatürlich",5628,291253,50
196,"f47_3",3,"f47","filler","unrelated",3,"keine Tendenz",5159,300741,52
196,"f11_2",2,"f11","control","related",4,"eher natürlich",4488,311008,54
196,"f61_3",3,"f61","filler","unrelated (pseudo_manner)",5,"vollkommen natürlich",4690,315703,55
196,"f04_1",1,"f04","control","related",3,"keine Tendenz",4510,337640,57
196,"f39_3",3,"f39","filler","pseudo_manner/COM",5,"vollkommen natürlich",5268,342913,58
196,"f12_1",1,"f12","control","related",3,"keine Tendenz",3700,346618,59
196,"f43_3",3,"f43","filler","unrelated (pseudo_TEMP)",4,"eher natürlich",4090,355542,61
196,"f57_1",1,"f57","filler","unrelated",5,"vollkommen natürlich",4262,363297,63
196,"f18_1",1,"f18","control","unrelated",5,"vollkommen natürlich",4164,373549,65
196,"f69_3",3,"f69","filler","unrelated",3,"keine Tendenz",4082,377637,66
196,"f35_3",3,"f35","filler","pseudo_windef",5,"vollkommen natürlich",4427,389277,68
196,"f08_1",1,"f08","control","related",5,"vollkommen natürlich",4096,393379,69
196,"f21_2",2,"f21","control","unrelated",1,"vollkommen unnatürlich",4728,401757,71
196,"f53_1",1,"f53","filler","pseudo_manner/INSTR",5,"vollkommen natürlich",5073,406834,72
196,"f01_2",2,"f01","control","related",1,"vollkommen unnatürlich",3880,410719,73
196,"f66_3",3,"f66","filler","unrelated",3,"keine Tendenz",3790,418407,75
196,"f03_2",2,"f03","control","related",1,"vollkommen unnatürlich",4225,422636,76
196,"f49_3",3,"f49","filler","unrelated",5,"vollkommen natürlich",3640,431757,78
196,"f68_2",2,"f68","attention","unrelated",1,"vollkommen unnatürlich",6107,462835,80
196,"f22_1",1,"f22","control","unrelated",5,"vollkommen natürlich",3902,466743,81
196,"f56_3",3,"f56","filler","unrelated (pseudo_CC)",4,"eher natürlich",5268,472016,82
196,"f48_2",2,"f48","attention","unrelated",1,"vollkommen unnatürlich",5305,481870,84
196,"f32_1",1,"f32","filler","pseudo_windef/CC",4,"eher natürlich",4315,486190,85
196,"f72_2",2,"f72","attention","unrelated",1,"vollkommen unnatürlich",5522,495625,87
196,"f51_2",2,"f51","attention","pseudo_COM/manner",5,"vollkommen natürlich",3865,503320,89
196,"f42_2",2,"f42","filler","unrelated (pseudo_TEMP)",1,"vollkommen unnatürlich",5402,514442,91
196,"f45_1",1,"f45","filler","unrelated (pseudo_TEMP)",5,"vollkommen natürlich",4608,524687,93
196,"f09_2",2,"f09","control","related",1,"vollkommen unnatürlich",5665,530357,94
196,"f44_3",3,"f44","filler","unrelated (pseudo_TEMP/CC)",4,"eher natürlich",3985,539004,96
196,"f29_2",2,"f29","attention","pseudo_windef",1,"vollkommen unnatürlich",4045,548425,98
196,"f19_2",2,"f19","control","unrelated",1,"vollkommen unnatürlich",4352,552782,99
196,"f60_2",2,"f60","attention","unrelated",1,"vollkommen unnatürlich",5432,562029,101
196,"f71_2",2,"f71","filler","unrelated",1,"vollkommen unnatürlich",4008,566041,102
196,"f06_1",1,"f06","control","related",5,"vollkommen natürlich",4464,573976,104
196,"f41_1",1,"f41","filler","unrelated",5,"vollkommen natürlich",3175,577157,105
196,"f16_1",1,"f16","control","unrelated",5,"vollkommen natürlich",4667,581829,106
196,"f31_2",2,"f31","attention","pseudo_windef/TEMP",3,"keine Tendenz",6422,588255,107
190,"f38_2",2,"f38","calibration","unrelated",5,"vollkommen natürlich",5702,5705,0
190,"f52_3",3,"f52","calibration","unrelated",2,"eher unnatürlich",7743,13451,1
190,"f50_1",1,"f50","calibration","unrelated",5,"vollkommen natürlich",5311,18764,2
190,"f28_2",2,"f28","calibration","pseudo_windef",1,"vollkommen unnatürlich",5726,24492,3
190,"f64_3",3,"f64","calibration","unrelated",1,"vollkommen unnatürlich",8534,33030,4
190,"f37_1",1,"f37","calibration","unrelated",5,"vollkommen natürlich",6780,39812,5
190,"f23_2",2,"f23","control","unrelated",2,"eher unnatürlich",6736,46550,6
190,"f69_3",3,"f69","filler","unrelated",1,"vollkommen unnatürlich",6709,60085,8
190,"f14_1",1,"f14","control","unrelated",5,"vollkommen natürlich",7409,67496,9
190,"f62_2",2,"f62","attention","unrelated (pseudo_manner)",2,"eher unnatürlich",7743,85662,11
190,"f12_1",1,"f12","control","related",3,"keine Tendenz",8261,93924,12
190,"f02_1",1,"f02","control","related",4,"eher natürlich",3825,103010,14
190,"f36_2",2,"f36","attention","pseudo_windef",1,"vollkommen unnatürlich",9856,112868,15
190,"f43_3",3,"f43","filler","unrelated (pseudo_TEMP)",1,"vollkommen unnatürlich",8150,130075,17
190,"f41_1",1,"f41","filler","unrelated",5,"vollkommen natürlich",5449,135524,18
190,"f72_2",2,"f72","attention","unrelated",2,"eher unnatürlich",6264,147571,20
190,"f13_2",2,"f13","control","unrelated",1,"vollkommen unnatürlich",6395,153969,21
190,"f58_3",3,"f58","filler","unrelated",1,"vollkommen unnatürlich",6784,167627,23
190,"f33_1",1,"f33","filler","pseudo_windef",5,"vollkommen natürlich",5977,179902,25
190,"f29_2",2,"f29","attention","pseudo_windef",1,"vollkommen unnatürlich",6093,203019,27
190,"f04_1",1,"f04","control","related",4,"eher natürlich",4904,207924,28
190,"f15_2",2,"f15","control","unrelated",1,"vollkommen unnatürlich",4519,217699,30
190,"f35_3",3,"f35","filler","pseudo_windef",3,"keine Tendenz",8663,226364,31
190,"f63_3",3,"f63","filler","unrelated",2,"eher unnatürlich",4839,238052,33
190,"f49_3",3,"f49","filler","unrelated",4,"eher natürlich",10556,254259,35
190,"f21_2",2,"f21","control","unrelated",1,"vollkommen unnatürlich",4374,263925,37
190,"f42_2",2,"f42","filler","unrelated (pseudo_TEMP)",2,"eher unnatürlich",10563,274491,38
190,"f01_2",2,"f01","control","related",3,"keine Tendenz",6694,285995,40
190,"f27_2",2,"f27","attention","pseudo_windef",2,"eher unnatürlich",4826,290822,41
190,"f10_1",1,"f10","control","related",5,"vollkommen natürlich",6384,302780,43
190,"f53_1",1,"f53","filler","pseudo_manner/INSTR",5,"vollkommen natürlich",5429,308211,44
190,"f22_1",1,"f22","control","unrelated",5,"vollkommen natürlich",5670,325723,46
190,"f45_1",1,"f45","filler","unrelated (pseudo_TEMP)",5,"vollkommen natürlich",5525,331251,47
190,"f25_3",3,"f25","filler","pseudo_windef",2,"eher unnatürlich",5934,344732,49
190,"f39_3",3,"f39","filler","pseudo_manner/COM",3,"keine Tendenz",6526,351259,50
190,"f56_3",3,"f56","filler","unrelated (pseudo_CC)",4,"eher natürlich",11908,373787,52
190,"f32_1",1,"f32","filler","pseudo_windef/CC",4,"eher natürlich",6438,385051,54
190,"f40_3",3,"f40","filler","unrelated",5,"vollkommen natürlich",4417,394429,56
190,"f26_1",1,"f26","filler","pseudo_windef",5,"vollkommen natürlich",6186,407125,58
190,"f30_3",3,"f30","filler","pseudo_windef",4,"eher natürlich",8732,415859,59
190,"f68_2",2,"f68","attention","unrelated",4,"eher natürlich",6766,434940,61
190,"f19_2",2,"f19","control","unrelated",1,"vollkommen unnatürlich",5325,449251,63
190,"f61_3",3,"f61","filler","unrelated (pseudo_manner)",5,"vollkommen natürlich",4726,453978,64
190,"f46_2",2,"f46","attention","unrelated",3,"keine Tendenz",10462,469058,66
190,"f55_3",3,"f55","filler","unrelated (pseudo_TEMP)",4,"eher natürlich",7079,482074,68
190,"f07_2",2,"f07","control","related",3,"keine Tendenz",15118,497193,69
190,"f60_2",2,"f60","attention","unrelated",1,"vollkommen unnatürlich",6910,512386,71
190,"f51_2",2,"f51","attention","pseudo_COM/manner",5,"vollkommen natürlich",6853,524642,73
190,"f16_1",1,"f16","control","unrelated",5,"vollkommen natürlich",4902,534642,75
190,"f66_3",3,"f66","filler","unrelated",4,"eher natürlich",4502,539146,76
190,"f18_1",1,"f18","control","unrelated",5,"vollkommen natürlich",5465,544613,77
190,"f44_3",3,"f44","filler","unrelated (pseudo_TEMP/CC)",4,"eher natürlich",6411,551026,78
190,"f20_1",1,"f20","control","unrelated",5,"vollkommen natürlich",4647,555675,79
190,"f34_3",3,"f34","filler","pseudo_windef",4,"eher natürlich",5438,568201,81
190,"f70_1",1,"f70","filler","unrelated",5,"vollkommen natürlich",4551,572754,82
190,"f48_2",2,"f48","attention","unrelated",2,"eher unnatürlich",10445,591186,84
190,"f06_1",1,"f06","control","related",4,"eher natürlich",5269,602218,86
190,"f57_1",1,"f57","filler","unrelated",5,"vollkommen natürlich",4440,606660,87
190,"f08_1",1,"f08","control","related",5,"vollkommen natürlich",4139,610802,88
190,"f54_2",2,"f54","filler","pseudo_CC/COM",1,"vollkommen unnatürlich",5896,623740,90
190,"f65_1",1,"f65","filler","unrelated",2,"eher unnatürlich",4992,638917,92
190,"f09_2",2,"f09","control","related",1,"vollkommen unnatürlich",6295,645217,93
190,"f03_2",2,"f03","control","related",2,"eher unnatürlich",7751,659450,95
190,"f59_2",2,"f59","attention","unrelated",2,"eher unnatürlich",7198,666650,96
190,"f71_2",2,"f71","filler","unrelated",1,"vollkommen unnatürlich",4765,678761,98
190,"f05_2",2,"f05","control","related",1,"vollkommen unnatürlich",5792,684555,99
190,"f67_1",1,"f67","filler","unrelated",4,"eher natürlich",7519,697825,101
190,"f24_1",1,"f24","control","unrelated",5,"vollkommen natürlich",6185,704012,102
190,"f11_2",2,"f11","control","related",4,"eher natürlich",4717,715689,104
190,"f31_2",2,"f31","attention","pseudo_windef/TEMP",2,"eher unnatürlich",8303,723994,105
190,"f17_2",2,"f17","control","unrelated",2,"eher unnatürlich",3877,727873,106
190,"f47_3",3,"f47","filler","unrelated",2,"eher unnatürlich",6743,734619,107
189,"f28_2",2,"f28","calibration","pseudo_windef",1,"vollkommen unnatürlich",17097,17102,0
189,"f52_3",3,"f52","calibration","unrelated",1,"vollkommen unnatürlich",15137,32245,1
189,"f50_1",1,"f50","calibration","unrelated",4,"eher natürlich",12589,44836,2
189,"f38_2",2,"f38","calibration","unrelated",1,"vollkommen unnatürlich",10413,55252,3
189,"f64_3",3,"f64","calibration","unrelated",1,"vollkommen unnatürlich",11413,66668,4
189,"f37_1",1,"f37","calibration","unrelated",4,"eher natürlich",15478,82148,5
189,"f29_2",2,"f29","attention","pseudo_windef",2,"eher unnatürlich",10540,104828,7
189,"f18_1",1,"f18","control","unrelated",5,"vollkommen natürlich",8190,113020,8
189,"f30_3",3,"f30","filler","pseudo_windef",2,"eher unnatürlich",14748,127772,9
189,"f63_3",3,"f63","filler","unrelated",2,"eher unnatürlich",10646,151372,11
189,"f05_2",2,"f05","control","related",2,"eher unnatürlich",20061,171437,12
189,"f36_2",2,"f36","attention","pseudo_windef",2,"eher unnatürlich",11476,182916,13
189,"f55_3",3,"f55","filler","unrelated (pseudo_TEMP)",2,"eher unnatürlich",9328,208741,15
189,"f16_1",1,"f16","control","unrelated",5,"vollkommen natürlich",6645,230757,17
189,"f41_1",1,"f41","filler","unrelated",5,"vollkommen natürlich",10925,241684,18
189,"f43_3",3,"f43","filler","unrelated (pseudo_TEMP)",4,"eher natürlich",13542,272222,20
189,"f34_3",3,"f34","filler","pseudo_windef",4,"eher natürlich",13237,294213,22
189,"f39_3",3,"f39","filler","pseudo_manner/COM",2,"eher unnatürlich",11005,317612,24
189,"f69_3",3,"f69","filler","unrelated",2,"eher unnatürlich",6115,336053,26
189,"f06_1",1,"f06","control","related",4,"eher natürlich",7909,352029,28
189,"f53_1",1,"f53","filler","pseudo_manner/INSTR",4,"eher natürlich",7709,359740,29
189,"f08_1",1,"f08","control","related",4,"eher natürlich",6957,366701,30
189,"f11_2",2,"f11","control","related",2,"eher unnatürlich",8885,390148,32
189,"f68_2",2,"f68","attention","unrelated",2,"eher unnatürlich",10022,400174,33
189,"f23_2",2,"f23","control","unrelated",2,"eher unnatürlich",16961,417140,34
189,"f58_3",3,"f58","filler","unrelated",2,"eher unnatürlich",7477,435501,36
189,"f60_2",2,"f60","attention","unrelated",1,"vollkommen unnatürlich",11670,457829,38
189,"f17_2",2,"f17","control","unrelated",1,"vollkommen unnatürlich",4354,462189,39
189,"f72_2",2,"f72","attention","unrelated",1,"vollkommen unnatürlich",9020,476389,41
189,"f04_1",1,"f04","control","related",5,"vollkommen natürlich",6772,483165,42
189,"f20_1",1,"f20","control","unrelated",5,"vollkommen natürlich",9493,502804,44
189,"f61_3",3,"f61","filler","unrelated (pseudo_manner)",5,"vollkommen natürlich",9302,512109,45
189,"f71_2",2,"f71","filler","unrelated",1,"vollkommen unnatürlich",7283,545550,47
189,"f10_1",1,"f10","control","related",4,"eher natürlich",9653,555205,48
189,"f47_3",3,"f47","filler","unrelated",2,"eher unnatürlich",23516,584916,50
189,"f19_2",2,"f19","control","unrelated",2,"eher unnatürlich",4607,589525,51
189,"f48_2",2,"f48","attention","unrelated",2,"eher unnatürlich",7794,606421,53
189,"f70_1",1,"f70","filler","unrelated",4,"eher natürlich",7454,622549,55
189,"f13_2",2,"f13","control","unrelated",1,"vollkommen unnatürlich",5332,634124,57
189,"f49_3",3,"f49","filler","unrelated",2,"eher unnatürlich",8733,642861,58
189,"f03_2",2,"f03","control","related",2,"eher unnatürlich",9786,664093,60
189,"f57_1",1,"f57","filler","unrelated",4,"eher natürlich",11514,675613,61
189,"f24_1",1,"f24","control","unrelated",5,"vollkommen natürlich",8780,684397,62
189,"f46_2",2,"f46","attention","unrelated",2,"eher unnatürlich",6925,703829,64
189,"f31_2",2,"f31","attention","pseudo_windef/TEMP",2,"eher unnatürlich",10675,726374,66
189,"f25_3",3,"f25","filler","pseudo_windef",4,"eher natürlich",8539,742709,68
189,"f45_1",1,"f45","filler","unrelated (pseudo_TEMP)",4,"eher natürlich",5406,755973,70
189,"f21_2",2,"f21","control","unrelated",1,"vollkommen unnatürlich",7446,770173,72
189,"f32_1",1,"f32","filler","pseudo_windef/CC",5,"vollkommen natürlich",9078,779253,73
189,"f54_2",2,"f54","filler","pseudo_CC/COM",2,"eher unnatürlich",8100,794870,75
189,"f14_1",1,"f14","control","unrelated",5,"vollkommen natürlich",4606,808046,77
189,"f42_2",2,"f42","filler","unrelated (pseudo_TEMP)",2,"eher unnatürlich",7188,815237,78
189,"f66_3",3,"f66","filler","unrelated",2,"eher unnatürlich",6741,821981,79
189,"f27_2",2,"f27","attention","pseudo_windef",2,"eher unnatürlich",5893,833693,81
189,"f44_3",3,"f44","filler","unrelated (pseudo_TEMP/CC)",2,"eher unnatürlich",6479,840173,82
189,"f01_2",2,"f01","control","related",2,"eher unnatürlich",9483,856990,84
189,"f26_1",1,"f26","filler","pseudo_windef",5,"vollkommen natürlich",4738,861733,85
189,"f51_2",2,"f51","attention","pseudo_COM/manner",5,"vollkommen natürlich",5749,877710,87
189,"f33_1",1,"f33","filler","pseudo_windef",5,"vollkommen natürlich",8669,886382,88
189,"f67_1",1,"f67","filler","unrelated",5,"vollkommen natürlich",13253,906829,90
189,"f07_2",2,"f07","control","related",2,"eher unnatürlich",7194,920990,92
189,"f35_3",3,"f35","filler","pseudo_windef",2,"eher unnatürlich",7324,928318,93
189,"f15_2",2,"f15","control","unrelated",1,"vollkommen unnatürlich",9139,937461,94
189,"f12_1",1,"f12","control","related",4,"eher natürlich",7733,959430,96
189,"f40_3",3,"f40","filler","unrelated",2,"eher unnatürlich",14320,973752,97
189,"f02_1",1,"f02","control","related",4,"eher natürlich",6192,979950,98
189,"f56_3",3,"f56","filler","unrelated (pseudo_CC)",5,"vollkommen natürlich",10157,1001574,100
189,"f09_2",2,"f09","control","related",3,"keine Tendenz",9500,1022821,102
189,"f65_1",1,"f65","filler","unrelated",4,"eher natürlich",7419,1030245,103
189,"f22_1",1,"f22","control","unrelated",4,"eher natürlich",6374,1036621,104
189,"f59_2",2,"f59","attention","unrelated",2,"eher unnatürlich",9667,1056222,106
189,"f62_2",2,"f62","attention","unrelated (pseudo_manner)",2,"eher unnatürlich",9692,1065917,107
187,"f64_3",3,"f64","calibration","unrelated",4,"eher natürlich",9490,9496,0
187,"f37_1",1,"f37","calibration","unrelated",5,"vollkommen natürlich",8525,18030,1
187,"f52_3",3,"f52","calibration","unrelated",3,"keine Tendenz",9343,27380,2
187,"f28_2",2,"f28","calibration","pseudo_windef",1,"vollkommen unnatürlich",8690,36076,3
187,"f50_1",1,"f50","calibration","unrelated",5,"vollkommen natürlich",5296,41380,4
187,"f38_2",2,"f38","calibration","unrelated",5,"vollkommen natürlich",4202,45588,5
187,"f62_2",2,"f62","attention","unrelated (pseudo_manner)",2,"eher unnatürlich",8585,61870,7
187,"f07_2",2,"f07","control","related",2,"eher unnatürlich",9460,71344,8
187,"f70_1",1,"f70","filler","unrelated",5,"vollkommen natürlich",6207,77559,9
187,"f35_3",3,"f35","filler","pseudo_windef",3,"keine Tendenz",7042,94381,11
187,"f09_2",2,"f09","control","related",1,"vollkommen unnatürlich",5235,104781,13
187,"f71_2",2,"f71","filler","unrelated",2,"eher unnatürlich",5571,110358,14
187,"f47_3",3,"f47","filler","unrelated",5,"vollkommen natürlich",7139,122677,16
187,"f10_1",1,"f10","control","related",4,"eher natürlich",5124,127806,17
187,"f49_3",3,"f49","filler","unrelated",3,"keine Tendenz",6457,134268,18
187,"f20_1",1,"f20","control","unrelated",5,"vollkommen natürlich",4659,149469,20
187,"f41_1",1,"f41","filler","unrelated",5,"vollkommen natürlich",5468,154942,21
187,"f03_2",2,"f03","control","related",2,"eher unnatürlich",11546,183445,23
187,"f48_2",2,"f48","attention","unrelated",1,"vollkommen unnatürlich",7863,191311,24
187,"f63_3",3,"f63","filler","unrelated",3,"keine Tendenz",4625,204782,26
187,"f17_2",2,"f17","control","unrelated",1,"vollkommen unnatürlich",6180,210968,27
187,"f14_1",1,"f14","control","unrelated",5,"vollkommen natürlich",6914,228408,29
187,"f60_2",2,"f60","attention","unrelated",2,"eher unnatürlich",6426,234840,30
187,"f67_1",1,"f67","filler","unrelated",4,"eher natürlich",7797,250626,32
187,"f04_1",1,"f04","control","related",4,"eher natürlich",14257,279850,34
187,"f69_3",3,"f69","filler","unrelated",4,"eher natürlich",6003,285857,35
187,"f24_1",1,"f24","control","unrelated",5,"vollkommen natürlich",7260,298555,37
187,"f34_3",3,"f34","filler","pseudo_windef",5,"vollkommen natürlich",8051,306611,38
187,"f12_1",1,"f12","control","related",4,"eher natürlich",8155,330613,40
187,"f57_1",1,"f57","filler","unrelated",5,"vollkommen natürlich",6953,337571,41
187,"f06_1",1,"f06","control","related",5,"vollkommen natürlich",5035,342612,42
187,"f02_1",1,"f02","control","related",4,"eher natürlich",5038,357707,44
187,"f68_2",2,"f68","attention","unrelated",1,"vollkommen unnatürlich",6130,363843,45
187,"f16_1",1,"f16","control","unrelated",4,"eher natürlich",8043,378197,47
187,"f65_1",1,"f65","filler","unrelated",5,"vollkommen natürlich",5918,384121,48
187,"f01_2",2,"f01","control","related",2,"eher unnatürlich",12655,396781,49
187,"f11_2",2,"f11","control","related",3,"keine Tendenz",5571,409027,51
187,"f44_3",3,"f44","filler","unrelated (pseudo_TEMP/CC)",4,"eher natürlich",14072,423103,52
187,"f46_2",2,"f46","attention","unrelated",2,"eher unnatürlich",6339,442844,54
187,"f30_3",3,"f30","filler","pseudo_windef",5,"vollkommen natürlich",6109,448959,55
187,"f72_2",2,"f72","attention","unrelated",2,"eher unnatürlich",5861,471488,57
187,"f23_2",2,"f23","control","unrelated",5,"vollkommen natürlich",5589,488984,59
187,"f31_2",2,"f31","attention","pseudo_windef/TEMP",2,"eher unnatürlich",7212,496199,60
187,"f59_2",2,"f59","attention","unrelated",2,"eher unnatürlich",6296,509254,62
187,"f43_3",3,"f43","filler","unrelated (pseudo_TEMP)",5,"vollkommen natürlich",8522,524879,64
187,"f22_1",1,"f22","control","unrelated",5,"vollkommen natürlich",9490,539454,66
187,"f40_3",3,"f40","filler","unrelated",5,"vollkommen natürlich",6342,545801,67
187,"f13_2",2,"f13","control","unrelated",2,"eher unnatürlich",4338,550144,68
187,"f45_1",1,"f45","filler","unrelated (pseudo_TEMP)",5,"vollkommen natürlich",6210,556358,69
187,"f18_1",1,"f18","control","unrelated",5,"vollkommen natürlich",4710,561072,70
187,"f54_2",2,"f54","filler","pseudo_CC/COM",1,"vollkommen unnatürlich",12038,579722,72
187,"f05_2",2,"f05","control","related",2,"eher unnatürlich",5602,585329,73
187,"f39_3",3,"f39","filler","pseudo_manner/COM",4,"eher natürlich",8587,593922,74
187,"f25_3",3,"f25","filler","pseudo_windef",5,"vollkommen natürlich",4684,605738,76
187,"f32_1",1,"f32","filler","pseudo_windef/CC",5,"vollkommen natürlich",7115,623016,78
187,"f55_3",3,"f55","filler","unrelated (pseudo_TEMP)",5,"vollkommen natürlich",4760,635464,80
187,"f33_1",1,"f33","filler","pseudo_windef",5,"vollkommen natürlich",8445,651875,82
187,"f08_1",1,"f08","control","related",5,"vollkommen natürlich",8729,660610,83
187,"f26_1",1,"f26","filler","pseudo_windef",5,"vollkommen natürlich",6164,677442,85
187,"f51_2",2,"f51","attention","pseudo_COM/manner",2,"eher unnatürlich",9324,696435,87
187,"f27_2",2,"f27","attention","pseudo_windef",2,"eher unnatürlich",5042,710298,89
187,"f29_2",2,"f29","attention","pseudo_windef",1,"vollkommen unnatürlich",4665,721228,91
187,"f21_2",2,"f21","control","unrelated",1,"vollkommen unnatürlich",6226,727459,92
187,"f61_3",3,"f61","filler","unrelated (pseudo_manner)",5,"vollkommen natürlich",10339,746036,94
187,"f58_3",3,"f58","filler","unrelated",4,"eher natürlich",7201,764548,96
187,"f36_2",2,"f36","attention","pseudo_windef",2,"eher unnatürlich",5868,778270,98
187,"f66_3",3,"f66","filler","unrelated",3,"keine Tendenz",7394,792053,100
187,"f42_2",2,"f42","filler","unrelated (pseudo_TEMP)",2,"eher unnatürlich",6891,808414,102
187,"f15_2",2,"f15","control","unrelated",2,"eher unnatürlich",6805,832175,104
187,"f53_1",1,"f53","filler","pseudo_manner/INSTR",5,"vollkommen natürlich",4519,836701,105
187,"f19_2",2,"f19","control","unrelated",4,"eher natürlich",5036,841742,106
187,"f56_3",3,"f56","filler","unrelated (pseudo_CC)",4,"eher natürlich",8387,850133,107
185,"f50_1",1,"f50","calibration","unrelated",5,"vollkommen natürlich",7667,7672,0
185,"f52_3",3,"f52","calibration","unrelated",2,"eher unnatürlich",9245,16931,1
185,"f37_1",1,"f37","calibration","unrelated",5,"vollkommen natürlich",9754,26694,2
185,"f38_2",2,"f38","calibration","unrelated",1,"vollkommen unnatürlich",9648,36351,3
185,"f64_3",3,"f64","calibration","unrelated",2,"eher unnatürlich",9745,46107,4
185,"f28_2",2,"f28","calibration","pseudo_windef",1,"vollkommen unnatürlich",5594,51709,5
185,"f24_1",1,"f24","control","unrelated",5,"vollkommen natürlich",5668,57387,6
185,"f07_2",2,"f07","control","related",2,"eher unnatürlich",5286,73428,8
185,"f58_3",3,"f58","filler","unrelated",2,"eher unnatürlich",5916,79352,9
185,"f14_1",1,"f14","control","unrelated",5,"vollkommen natürlich",4381,83743,10
185,"f01_2",2,"f01","control","related",1,"vollkommen unnatürlich",4232,95743,12
185,"f40_3",3,"f40","filler","unrelated",4,"eher natürlich",5432,101182,13
185,"f39_3",3,"f39","filler","pseudo_manner/COM",2,"eher unnatürlich",9735,120212,15
185,"f15_2",2,"f15","control","unrelated",1,"vollkommen unnatürlich",8768,128988,16
185,"f09_2",2,"f09","control","related",1,"vollkommen unnatürlich",7125,149909,18
185,"f61_3",3,"f61","filler","unrelated (pseudo_manner)",4,"eher natürlich",5694,155611,19
185,"f19_2",2,"f19","control","unrelated",1,"vollkommen unnatürlich",6192,167293,21
185,"f59_2",2,"f59","attention","unrelated",2,"eher unnatürlich",13045,180348,22
185,"f27_2",2,"f27","attention","pseudo_windef",5,"vollkommen natürlich",5820,199029,24
185,"f65_1",1,"f65","filler","unrelated",4,"eher natürlich",7226,221609,26
185,"f20_1",1,"f20","control","unrelated",5,"vollkommen natürlich",5768,242163,28
185,"f72_2",2,"f72","attention","unrelated",1,"vollkommen unnatürlich",8051,250221,29
185,"f60_2",2,"f60","attention","unrelated",1,"vollkommen unnatürlich",12946,276365,31
185,"f23_2",2,"f23","control","unrelated",2,"eher unnatürlich",4710,281084,32
185,"f53_1",1,"f53","filler","pseudo_manner/INSTR",5,"vollkommen natürlich",12707,303169,34
185,"f16_1",1,"f16","control","unrelated",5,"vollkommen natürlich",6407,321593,36
185,"f44_3",3,"f44","filler","unrelated (pseudo_TEMP/CC)",4,"eher natürlich",8938,330539,37
185,"f67_1",1,"f67","filler","unrelated",5,"vollkommen natürlich",8663,348810,39
185,"f26_1",1,"f26","filler","pseudo_windef",5,"vollkommen natürlich",4499,359585,41
185,"f63_3",3,"f63","filler","unrelated",2,"eher unnatürlich",3689,370360,43
185,"f51_2",2,"f51","attention","pseudo_COM/manner",4,"eher natürlich",4943,384708,45
185,"f31_2",2,"f31","attention","pseudo_windef/TEMP",2,"eher unnatürlich",9912,403168,47
185,"f06_1",1,"f06","control","related",5,"vollkommen natürlich",9912,417899,49
185,"f70_1",1,"f70","filler","unrelated",5,"vollkommen natürlich",21983,439891,50
185,"f34_3",3,"f34","filler","pseudo_windef",4,"eher natürlich",4898,444798,51
185,"f10_1",1,"f10","control","related",5,"vollkommen natürlich",6291,457207,53
185,"f71_2",2,"f71","filler","unrelated",1,"vollkommen unnatürlich",6520,463736,54
185,"f05_2",2,"f05","control","related",1,"vollkommen unnatürlich",6950,470696,55
185,"f48_2",2,"f48","attention","unrelated",1,"vollkommen unnatürlich",9162,486554,57
185,"f17_2",2,"f17","control","unrelated",1,"vollkommen unnatürlich",5097,491661,58
185,"f13_2",2,"f13","control","unrelated",2,"eher unnatürlich",5313,502736,60
185,"f29_2",2,"f29","attention","pseudo_windef",1,"vollkommen unnatürlich",4130,506874,61
185,"f11_2",2,"f11","control","related",1,"vollkommen unnatürlich",6089,523673,63
185,"f42_2",2,"f42","filler","unrelated (pseudo_TEMP)",5,"vollkommen natürlich",9382,533067,64
185,"f35_3",3,"f35","filler","pseudo_windef",4,"eher natürlich",4725,542458,66
185,"f25_3",3,"f25","filler","pseudo_windef",4,"eher natürlich",47918,632006,68
185,"f22_1",1,"f22","control","unrelated",5,"vollkommen natürlich",8767,646055,70
185,"f47_3",3,"f47","filler","unrelated",4,"eher natürlich",8374,654440,71
185,"f62_2",2,"f62","attention","unrelated (pseudo_manner)",2,"eher unnatürlich",37895,692344,72
185,"f30_3",3,"f30","filler","pseudo_windef",4,"eher natürlich",4631,702044,74
185,"f18_1",1,"f18","control","unrelated",5,"vollkommen natürlich",6351,708404,75
185,"f56_3",3,"f56","filler","unrelated (pseudo_CC)",5,"vollkommen natürlich",5769,714181,76
185,"f21_2",2,"f21","control","unrelated",2,"eher unnatürlich",7522,726075,78
185,"f66_3",3,"f66","filler","unrelated",4,"eher natürlich",4473,730557,79
185,"f68_2",2,"f68","attention","unrelated",1,"vollkommen unnatürlich",9641,754070,81
185,"f54_2",2,"f54","filler","pseudo_CC/COM",2,"eher unnatürlich",5036,785305,83
185,"f03_2",2,"f03","control","related",1,"vollkommen unnatürlich",6925,792240,84
185,"f49_3",3,"f49","filler","unrelated",4,"eher natürlich",3905,805017,86
185,"f12_1",1,"f12","control","related",4,"eher natürlich",5701,813893,88
185,"f33_1",1,"f33","filler","pseudo_windef",5,"vollkommen natürlich",6991,820895,89
185,"f45_1",1,"f45","filler","unrelated (pseudo_TEMP)",5,"vollkommen natürlich",4349,825257,90
185,"f46_2",2,"f46","attention","unrelated",2,"eher unnatürlich",11867,842196,92
185,"f32_1",1,"f32","filler","pseudo_windef/CC",5,"vollkommen natürlich",8132,856667,94
185,"f08_1",1,"f08","control","related",5,"vollkommen natürlich",6581,867335,96
185,"f69_3",3,"f69","filler","unrelated",2,"eher unnatürlich",10120,877466,97
185,"f02_1",1,"f02","control","related",4,"eher natürlich",7320,884797,98
185,"f57_1",1,"f57","filler","unrelated",5,"vollkommen natürlich",6001,902416,100
185,"f41_1",1,"f41","filler","unrelated",5,"vollkommen natürlich",7645,921133,102
185,"f36_2",2,"f36","attention","pseudo_windef",1,"vollkommen unnatürlich",5160,926304,103
185,"f04_1",1,"f04","control","related",5,"vollkommen natürlich",10749,937064,104
185,"f43_3",3,"f43","filler","unrelated (pseudo_TEMP)",5,"vollkommen natürlich",10060,952571,106
185,"f55_3",3,"f55","filler","unrelated (pseudo_TEMP)",2,"eher unnatürlich",7694,960273,107
184,"f64_3",3,"f64","calibration","unrelated",1,"vollkommen unnatürlich",20754,20792,0
184,"f37_1",1,"f37","calibration","unrelated",4,"eher natürlich",12369,33175,1
184,"f28_2",2,"f28","calibration","pseudo_windef",2,"eher unnatürlich",8181,41368,2
184,"f38_2",2,"f38","calibration","unrelated",2,"eher unnatürlich",8856,50236,3
184,"f52_3",3,"f52","calibration","unrelated",2,"eher unnatürlich",7669,57914,4
184,"f50_1",1,"f50","calibration","unrelated",4,"eher natürlich",10026,67953,5
184,"f60_2",2,"f60","attention","unrelated",2,"eher unnatürlich",13200,93507,7
184,"f02_1",1,"f02","control","related",4,"eher natürlich",9171,102690,8
184,"f56_3",3,"f56","filler","unrelated (pseudo_CC)",4,"eher natürlich",11820,124381,10
184,"f06_1",1,"f06","control","related",4,"eher natürlich",6607,131003,11
184,"f45_1",1,"f45","filler","unrelated (pseudo_TEMP)",5,"vollkommen natürlich",6530,137541,12
184,"f47_3",3,"f47","filler","unrelated",2,"eher unnatürlich",13335,157417,14
184,"f22_1",1,"f22","control","unrelated",4,"eher natürlich",7532,164957,15
184,"f67_1",1,"f67","filler","unrelated",5,"vollkommen natürlich",9811,180819,17
184,"f70_1",1,"f70","filler","unrelated",4,"eher natürlich",61464,251443,19
184,"f04_1",1,"f04","control","related",5,"vollkommen natürlich",10592,262048,20
184,"f57_1",1,"f57","filler","unrelated",5,"vollkommen natürlich",5481,274163,22
184,"f62_2",2,"f62","attention","unrelated (pseudo_manner)",5,"vollkommen natürlich",8332,290118,24
184,"f10_1",1,"f10","control","related",4,"eher natürlich",6208,306735,26
184,"f31_2",2,"f31","attention","pseudo_windef/TEMP",2,"eher unnatürlich",12208,318950,27
184,"f68_2",2,"f68","attention","unrelated",2,"eher unnatürlich",10515,338468,29
184,"f07_2",2,"f07","control","related",1,"vollkommen unnatürlich",10280,365278,31
184,"f46_2",2,"f46","attention","unrelated",1,"vollkommen unnatürlich",9483,374771,32
184,"f63_3",3,"f63","filler","unrelated",2,"eher unnatürlich",8693,399525,34
184,"f14_1",1,"f14","control","unrelated",5,"vollkommen natürlich",6414,413862,36
184,"f29_2",2,"f29","attention","pseudo_windef",2,"eher unnatürlich",7899,421776,37
184,"f20_1",1,"f20","control","unrelated",5,"vollkommen natürlich",7304,429088,38
184,"f55_3",3,"f55","filler","unrelated (pseudo_TEMP)",4,"eher natürlich",16448,455958,40
184,"f36_2",2,"f36","attention","pseudo_windef",1,"vollkommen unnatürlich",6196,468817,42
184,"f65_1",1,"f65","filler","unrelated",4,"eher natürlich",7145,481322,44
184,"f27_2",2,"f27","attention","pseudo_windef",1,"vollkommen unnatürlich",6940,502803,46
184,"f15_2",2,"f15","control","unrelated",1,"vollkommen unnatürlich",8603,518025,48
184,"f43_3",3,"f43","filler","unrelated (pseudo_TEMP)",5,"vollkommen natürlich",10208,528247,49
184,"f41_1",1,"f41","filler","unrelated",5,"vollkommen natürlich",7287,543185,51
184,"f01_2",2,"f01","control","related",1,"vollkommen unnatürlich",6605,549805,52
184,"f48_2",2,"f48","attention","unrelated",1,"vollkommen unnatürlich",6579,568657,54
184,"f30_3",3,"f30","filler","pseudo_windef",4,"eher natürlich",6795,581782,56
184,"f11_2",2,"f11","control","related",1,"vollkommen unnatürlich",7009,588803,57
184,"f21_2",2,"f21","control","unrelated",1,"vollkommen unnatürlich",4737,599985,59
184,"f71_2",2,"f71","filler","unrelated",1,"vollkommen unnatürlich",4885,604880,60
184,"f16_1",1,"f16","control","unrelated",5,"vollkommen natürlich",7913,618973,62
184,"f51_2",2,"f51","attention","pseudo_COM/manner",4,"eher natürlich",7073,626056,63
184,"f42_2",2,"f42","filler","unrelated (pseudo_TEMP)",1,"vollkommen unnatürlich",9368,640492,65
184,"f32_1",1,"f32","filler","pseudo_windef/CC",2,"eher unnatürlich",9170,649673,66
184,"f03_2",2,"f03","control","related",1,"vollkommen unnatürlich",7440,657140,67
184,"f72_2",2,"f72","attention","unrelated",1,"vollkommen unnatürlich",6500,680835,69
184,"f18_1",1,"f18","control","unrelated",5,"vollkommen natürlich",9945,703605,71
184,"f40_3",3,"f40","filler","unrelated",4,"eher natürlich",6384,709999,72
184,"f19_2",2,"f19","control","unrelated",1,"vollkommen unnatürlich",6181,716194,73
184,"f66_3",3,"f66","filler","unrelated",1,"vollkommen unnatürlich",5586,728148,75
184,"f58_3",3,"f58","filler","unrelated",1,"vollkommen unnatürlich",3742,736471,77
184,"f69_3",3,"f69","filler","unrelated",1,"vollkommen unnatürlich",6179,748214,79
184,"f23_2",2,"f23","control","unrelated",1,"vollkommen unnatürlich",5183,761238,81
184,"f25_3",3,"f25","filler","pseudo_windef",2,"eher unnatürlich",6198,767446,82
184,"f12_1",1,"f12","control","related",4,"eher natürlich",7048,774504,83
184,"f44_3",3,"f44","filler","unrelated (pseudo_TEMP/CC)",1,"vollkommen unnatürlich",7051,789679,85
184,"f24_1",1,"f24","control","unrelated",5,"vollkommen natürlich",8747,798435,86
184,"f59_2",2,"f59","attention","unrelated",1,"vollkommen unnatürlich",12608,816574,88
184,"f13_2",2,"f13","control","unrelated",1,"vollkommen unnatürlich",5391,828851,90
184,"f26_1",1,"f26","filler","pseudo_windef",5,"vollkommen natürlich",7242,836104,91
184,"f35_3",3,"f35","filler","pseudo_windef",4,"eher natürlich",7425,843541,92
184,"f39_3",3,"f39","filler","pseudo_manner/COM",2,"eher unnatürlich",13073,863769,94
184,"f08_1",1,"f08","control","related",4,"eher natürlich",7487,878631,96
184,"f34_3",3,"f34","filler","pseudo_windef",2,"eher unnatürlich",4743,883383,97
184,"f09_2",2,"f09","control","related",1,"vollkommen unnatürlich",5889,889285,98
184,"f05_2",2,"f05","control","related",1,"vollkommen unnatürlich",4056,899083,100
184,"f53_1",1,"f53","filler","pseudo_manner/INSTR",5,"vollkommen natürlich",21687,920782,101
184,"f61_3",3,"f61","filler","unrelated (pseudo_manner)",5,"vollkommen natürlich",7217,928009,102
184,"f49_3",3,"f49","filler","unrelated",4,"eher natürlich",6299,934325,103
184,"f17_2",2,"f17","control","unrelated",1,"vollkommen unnatürlich",3887,944254,105
184,"f54_2",2,"f54","filler","pseudo_CC/COM",1,"vollkommen unnatürlich",9390,953655,106
184,"f33_1",1,"f33","filler","pseudo_windef",4,"eher natürlich",8302,961973,107
183,"f28_2",2,"f28","calibration","pseudo_windef",1,"vollkommen unnatürlich",13948,13951,0
183,"f52_3",3,"f52","calibration","unrelated",2,"eher unnatürlich",8497,22450,1
183,"f37_1",1,"f37","calibration","unrelated",5,"vollkommen natürlich",17826,40279,2
183,"f38_2",2,"f38","calibration","unrelated",5,"vollkommen natürlich",9686,49967,3
183,"f64_3",3,"f64","calibration","unrelated",3,"keine Tendenz",20368,70337,4
183,"f50_1",1,"f50","calibration","unrelated",5,"vollkommen natürlich",18342,88681,5
183,"f59_2",2,"f59","attention","unrelated",2,"eher unnatürlich",11417,114777,7
183,"f12_1",1,"f12","control","related",3,"keine Tendenz",19768,134547,8
183,"f09_2",2,"f09","control","related",1,"vollkommen unnatürlich",14351,169951,10
183,"f66_3",3,"f66","filler","unrelated",2,"eher unnatürlich",12926,182879,11
183,"f02_1",1,"f02","control","related",4,"eher natürlich",10622,209555,13
183,"f51_2",2,"f51","attention","pseudo_COM/manner",4,"eher natürlich",13316,222873,14
183,"f63_3",3,"f63","filler","unrelated",1,"vollkommen unnatürlich",6798,246541,16
183,"f62_2",2,"f62","attention","unrelated (pseudo_manner)",2,"eher unnatürlich",11142,298289,18
183,"f27_2",2,"f27","attention","pseudo_windef",1,"vollkommen unnatürlich",7656,305947,19
183,"f05_2",2,"f05","control","related",1,"vollkommen unnatürlich",9530,315479,20
183,"f13_2",2,"f13","control","unrelated",1,"vollkommen unnatürlich",5913,329503,22
183,"f57_1",1,"f57","filler","unrelated",5,"vollkommen natürlich",9103,338607,23
183,"f15_2",2,"f15","control","unrelated",1,"vollkommen unnatürlich",15521,370635,25
183,"f34_3",3,"f34","filler","pseudo_windef",4,"eher natürlich",12471,383109,26
183,"f30_3",3,"f30","filler","pseudo_windef",4,"eher natürlich",51762,444509,28
183,"f58_3",3,"f58","filler","unrelated",4,"eher natürlich",11265,465199,30
183,"f17_2",2,"f17","control","unrelated",1,"vollkommen unnatürlich",22137,487337,31
183,"f26_1",1,"f26","filler","pseudo_windef",5,"vollkommen natürlich",18572,513489,33
183,"f68_2",2,"f68","attention","unrelated",1,"vollkommen unnatürlich",10489,549767,35
183,"f14_1",1,"f14","control","unrelated",5,"vollkommen natürlich",9748,559517,36
183,"f45_1",1,"f45","filler","unrelated (pseudo_TEMP)",5,"vollkommen natürlich",13763,611921,38
183,"f71_2",2,"f71","filler","unrelated",1,"vollkommen unnatürlich",5982,631516,40
183,"f06_1",1,"f06","control","related",4,"eher natürlich",6700,650352,42
183,"f65_1",1,"f65","filler","unrelated",5,"vollkommen natürlich",7960,658314,43
183,"f40_3",3,"f40","filler","unrelated",4,"eher natürlich",9404,683236,45
183,"f07_2",2,"f07","control","related",1,"vollkommen unnatürlich",8162,691400,46
183,"f43_3",3,"f43","filler","unrelated (pseudo_TEMP)",3,"keine Tendenz",19817,724226,48
183,"f48_2",2,"f48","attention","unrelated",1,"vollkommen unnatürlich",20868,753127,50
183,"f41_1",1,"f41","filler","unrelated",5,"vollkommen natürlich",6843,774617,52
183,"f20_1",1,"f20","control","unrelated",5,"vollkommen natürlich",6715,781334,53
183,"f67_1",1,"f67","filler","unrelated",5,"vollkommen natürlich",8117,800465,55
183,"f55_3",3,"f55","filler","unrelated (pseudo_TEMP)",4,"eher natürlich",17595,825189,57
183,"f60_2",2,"f60","attention","unrelated",1,"vollkommen unnatürlich",33525,879686,59
183,"f16_1",1,"f16","control","unrelated",5,"vollkommen natürlich",10272,900640,61
183,"f53_1",1,"f53","filler","pseudo_manner/INSTR",5,"vollkommen natürlich",8476,909118,62
183,"f69_3",3,"f69","filler","unrelated",2,"eher unnatürlich",9740,918860,63
183,"f01_2",2,"f01","control","related",1,"vollkommen unnatürlich",23320,942182,64
183,"f31_2",2,"f31","attention","pseudo_windef/TEMP",1,"vollkommen unnatürlich",11364,963430,66
183,"f10_1",1,"f10","control","related",4,"eher natürlich",11085,974518,67
183,"f49_3",3,"f49","filler","unrelated",4,"eher natürlich",16654,991174,68
183,"f36_2",2,"f36","attention","pseudo_windef",1,"vollkommen unnatürlich",29328,1020504,69
183,"f25_3",3,"f25","filler","pseudo_windef",4,"eher natürlich",4934,1037574,71
183,"f22_1",1,"f22","control","unrelated",5,"vollkommen natürlich",6178,1043754,72
183,"f54_2",2,"f54","filler","pseudo_CC/COM",1,"vollkommen unnatürlich",17046,1072436,74
183,"f19_2",2,"f19","control","unrelated",1,"vollkommen unnatürlich",8560,1094638,76
183,"f33_1",1,"f33","filler","pseudo_windef",5,"vollkommen natürlich",8976,1103616,77
183,"f11_2",2,"f11","control","related",1,"vollkommen unnatürlich",6630,1115982,79
183,"f72_2",2,"f72","attention","unrelated",1,"vollkommen unnatürlich",14458,1130442,80
183,"f47_3",3,"f47","filler","unrelated",4,"eher natürlich",13261,1154308,82
183,"f56_3",3,"f56","filler","unrelated (pseudo_CC)",5,"vollkommen natürlich",14920,1181848,84
183,"f24_1",1,"f24","control","unrelated",5,"vollkommen natürlich",9912,1201388,86
183,"f61_3",3,"f61","filler","unrelated (pseudo_manner)",4,"eher natürlich",6098,1207488,87
183,"f08_1",1,"f08","control","related",4,"eher natürlich",4882,1212372,88
183,"f44_3",3,"f44","filler","unrelated (pseudo_TEMP/CC)",4,"eher natürlich",7154,1219528,89
183,"f18_1",1,"f18","control","unrelated",5,"vollkommen natürlich",11226,1230756,90
183,"f04_1",1,"f04","control","related",3,"keine Tendenz",6779,1246288,92
183,"f29_2",2,"f29","attention","pseudo_windef",1,"vollkommen unnatürlich",5264,1251554,93
183,"f23_2",2,"f23","control","unrelated",1,"vollkommen unnatürlich",4772,1256328,94
183,"f32_1",1,"f32","filler","pseudo_windef/CC",4,"eher natürlich",9084,1276874,96
183,"f35_3",3,"f35","filler","pseudo_windef",5,"vollkommen natürlich",14202,1299922,98
183,"f42_2",2,"f42","filler","unrelated (pseudo_TEMP)",1,"vollkommen unnatürlich",6732,1313820,100
183,"f03_2",2,"f03","control","related",1,"vollkommen unnatürlich",5186,1319008,101
183,"f70_1",1,"f70","filler","unrelated",5,"vollkommen natürlich",9310,1333264,103
183,"f21_2",2,"f21","control","unrelated",1,"vollkommen unnatürlich",4184,1337450,104
183,"f46_2",2,"f46","attention","unrelated",1,"vollkommen unnatürlich",8185,1350294,106
183,"f39_3",3,"f39","filler","pseudo_manner/COM",4,"eher natürlich",12733,1363030,107
182,"f28_2",2,"f28","calibration","pseudo_windef",1,"vollkommen unnatürlich",9319,9326,0
182,"f52_3",3,"f52","calibration","unrelated",2,"eher unnatürlich",14219,23549,1
182,"f37_1",1,"f37","calibration","unrelated",5,"vollkommen natürlich",6762,30317,2
182,"f64_3",3,"f64","calibration","unrelated",1,"vollkommen unnatürlich",15124,45445,3
182,"f50_1",1,"f50","calibration","unrelated",5,"vollkommen natürlich",10916,56365,4
182,"f38_2",2,"f38","calibration","unrelated",5,"vollkommen natürlich",5297,61664,5
182,"f29_2",2,"f29","attention","pseudo_windef",1,"vollkommen unnatürlich",7581,87633,7
182,"f11_2",2,"f11","control","related",1,"vollkommen unnatürlich",13149,100785,8
182,"f26_1",1,"f26","filler","pseudo_windef",5,"vollkommen natürlich",5861,120353,10
182,"f05_2",2,"f05","control","related",2,"eher unnatürlich",12080,142597,12
182,"f57_1",1,"f57","filler","unrelated",5,"vollkommen natürlich",6758,149357,13
182,"f12_1",1,"f12","control","related",5,"vollkommen natürlich",7349,164837,15
182,"f43_3",3,"f43","filler","unrelated (pseudo_TEMP)",5,"vollkommen natürlich",11502,176341,16
182,"f51_2",2,"f51","attention","pseudo_COM/manner",1,"vollkommen unnatürlich",10355,186701,17
182,"f31_2",2,"f31","attention","pseudo_windef/TEMP",2,"eher unnatürlich",17882,218185,19
182,"f15_2",2,"f15","control","unrelated",1,"vollkommen unnatürlich",9885,238929,21
182,"f62_2",2,"f62","attention","unrelated (pseudo_manner)",4,"eher natürlich",12693,251625,22
182,"f13_2",2,"f13","control","unrelated",1,"vollkommen unnatürlich",9241,272037,24
182,"f36_2",2,"f36","attention","pseudo_windef",1,"vollkommen unnatürlich",12405,284445,25
182,"f48_2",2,"f48","attention","unrelated",2,"eher unnatürlich",9726,305103,27
182,"f14_1",1,"f14","control","unrelated",5,"vollkommen natürlich",6132,311237,28
182,"f54_2",2,"f54","filler","pseudo_CC/COM",1,"vollkommen unnatürlich",9869,327973,30
182,"f44_3",3,"f44","filler","unrelated (pseudo_TEMP/CC)",2,"eher unnatürlich",9570,348634,32
182,"f45_1",1,"f45","filler","unrelated (pseudo_TEMP)",5,"vollkommen natürlich",9469,369450,34
182,"f59_2",2,"f59","attention","unrelated",2,"eher unnatürlich",8654,387930,36
182,"f70_1",1,"f70","filler","unrelated",5,"vollkommen natürlich",8812,405946,38
182,"f19_2",2,"f19","control","unrelated",3,"keine Tendenz",8252,414202,39
182,"f20_1",1,"f20","control","unrelated",5,"vollkommen natürlich",9376,432822,41
182,"f65_1",1,"f65","filler","unrelated",5,"vollkommen natürlich",8163,440989,42
182,"f33_1",1,"f33","filler","pseudo_windef",5,"vollkommen natürlich",11862,467926,44
182,"f56_3",3,"f56","filler","unrelated (pseudo_CC)",4,"eher natürlich",21481,498857,46
182,"f21_2",2,"f21","control","unrelated",1,"vollkommen unnatürlich",9029,507889,47
182,"f40_3",3,"f40","filler","unrelated",4,"eher natürlich",10452,527569,49
182,"f60_2",2,"f60","attention","unrelated",4,"eher natürlich",9781,537353,50
182,"f03_2",2,"f03","control","related",2,"eher unnatürlich",9853,553705,52
182,"f35_3",3,"f35","filler","pseudo_windef",3,"keine Tendenz",10813,564521,53
182,"f22_1",1,"f22","control","unrelated",5,"vollkommen natürlich",6537,581437,55
182,"f42_2",2,"f42","filler","unrelated (pseudo_TEMP)",1,"vollkommen unnatürlich",7429,588869,56
182,"f07_2",2,"f07","control","related",2,"eher unnatürlich",6149,602085,58
182,"f41_1",1,"f41","filler","unrelated",5,"vollkommen natürlich",9661,611749,59
182,"f61_3",3,"f61","filler","unrelated (pseudo_manner)",5,"vollkommen natürlich",7332,625861,61
182,"f39_3",3,"f39","filler","pseudo_manner/COM",4,"eher natürlich",16853,642717,62
