"workerId","itemId","ENCODING","OPTION_0_CONDITION_NO","OPTION_1_CONDITION_NO","ADVERBIAL_TYPE","INTEGRATION","ANSWER","ANSWER_CONDITION_NO","ANSWER_POSITION","PRESENTATION_ORDER","PRESENTATION_ORDER_CONDITION","rt","time_elapsed","trial_index"
235,"t01_1_2","t01",1,2,"COM(S)","yes","OBJ>PP",2,"below","PP>OBJ >> OBJ>PP","condition 1 >> condition 2",5608,183736,24
237,"t01_1_2","t01",1,2,"COM(S)","yes","PP>OBJ",1,"above","PP>OBJ >> OBJ>PP","condition 1 >> condition 2",10053,411404,41
271,"t01_1_2","t01",1,2,"COM(S)","yes","PP>OBJ",1,"below","OBJ>PP >> PP>OBJ","condition 2 >> condition 1",8802,105967,12
251,"t01_1_2","t01",1,2,"COM(S)","yes","OBJ>PP",2,"below","PP>OBJ >> OBJ>PP","condition 1 >> condition 2",5625,172862,23
256,"t01_1_2","t01",1,2,"COM(S)","yes","OBJ>PP",2,"above","OBJ>PP >> PP>OBJ","condition 2 >> condition 1",7458,245059,25
233,"t01_1_2","t01",1,2,"COM(S)","yes","OBJ>PP",2,"below","PP>OBJ >> OBJ>PP","condition 1 >> condition 2",5877,119953,14
230,"t01_1_2","t01",1,2,"COM(S)","yes","PP>OBJ",1,"above","PP>OBJ >> OBJ>PP","condition 1 >> condition 2",9724,378052,43
245,"t01_1_2","t01",1,2,"COM(S)","yes","PP>OBJ",1,"below","OBJ>PP >> PP>OBJ","condition 2 >> condition 1",10903,554187,37
228,"t01_1_2","t01",1,2,"COM(S)","yes","PP>OBJ",1,"below","OBJ>PP >> PP>OBJ","condition 2 >> condition 1",8806,242429,23
246,"t01_1_2","t01",1,2,"COM(S)","yes","OBJ>PP",2,"below","PP>OBJ >> OBJ>PP","condition 1 >> condition 2",18443,279802,29
248,"t01_1_2","t01",1,2,"COM(S)","yes","OBJ>PP",2,"below","PP>OBJ >> OBJ>PP","condition 1 >> condition 2",92869,1280680,55
244,"t01_1_2","t01",1,2,"COM(S)","yes","OBJ>PP",2,"below","PP>OBJ >> OBJ>PP","condition 1 >> condition 2",6547,162151,16
258,"t01_1_2","t01",1,2,"COM(S)","yes","OBJ>PP",2,"above","OBJ>PP >> PP>OBJ","condition 2 >> condition 1",13909,612489,63
236,"t01_1_2","t01",1,2,"COM(S)","yes","OBJ>PP",2,"below","PP>OBJ >> OBJ>PP","condition 1 >> condition 2",13126,115682,10
222,"t01_1_2","t01",1,2,"COM(S)","yes","OBJ>PP",2,"below","PP>OBJ >> OBJ>PP","condition 1 >> condition 2",6685,440903,47
269,"t01_1_2","t01",1,2,"COM(S)","yes","PP>OBJ",1,"below","OBJ>PP >> PP>OBJ","condition 2 >> condition 1",18586,635751,29
267,"t01_1_2","t01",1,2,"COM(S)","yes","PP>OBJ",1,"above","PP>OBJ >> OBJ>PP","condition 1 >> condition 2",17585,95037,6
243,"t01_1_2","t01",1,2,"COM(S)","yes","PP>OBJ",1,"below","OBJ>PP >> PP>OBJ","condition 2 >> condition 1",9377,418833,40
225,"t01_1_2","t01",1,2,"COM(S)","yes","OBJ>PP",2,"above","OBJ>PP >> PP>OBJ","condition 2 >> condition 1",13505,250757,29
266,"t01_1_2","t01",1,2,"COM(S)","yes","PP>OBJ",1,"below","OBJ>PP >> PP>OBJ","condition 2 >> condition 1",8541,689995,64
234,"t01_1_2","t01",1,2,"COM(S)","yes","PP>OBJ",1,"below","OBJ>PP >> PP>OBJ","condition 2 >> condition 1",16531,150721,12
263,"t01_1_2","t01",1,2,"COM(S)","yes","PP>OBJ",1,"below","OBJ>PP >> PP>OBJ","condition 2 >> condition 1",5373,475842,46
255,"t01_1_2","t01",1,2,"COM(S)","yes","PP>OBJ",1,"above","PP>OBJ >> OBJ>PP","condition 1 >> condition 2",6186,573481,41
223,"t01_1_2","t01",1,2,"COM(S)","yes","PP>OBJ",1,"above","PP>OBJ >> OBJ>PP","condition 1 >> condition 2",11328,375636,39
232,"t01_1_2","t01",1,2,"COM(S)","yes","OBJ>PP",2,"above","OBJ>PP >> PP>OBJ","condition 2 >> condition 1",7795,62539,10
229,"t01_1_2","t01",1,2,"COM(S)","yes","PP>OBJ",1,"below","OBJ>PP >> PP>OBJ","condition 2 >> condition 1",8010,210040,27
238,"t01_1_2","t01",1,2,"COM(S)","yes","OBJ>PP",2,"below","PP>OBJ >> OBJ>PP","condition 1 >> condition 2",7527,521059,69
239,"t01_1_2","t01",1,2,"COM(S)","yes","PP>OBJ",1,"below","OBJ>PP >> PP>OBJ","condition 2 >> condition 1",6455,396598,45
224,"t01_1_2","t01",1,2,"COM(S)","yes","PP>OBJ",1,"below","OBJ>PP >> PP>OBJ","condition 2 >> condition 1",15225,286830,38
270,"t01_1_2","t01",1,2,"COM(S)","yes","PP>OBJ",1,"above","PP>OBJ >> OBJ>PP","condition 1 >> condition 2",12730,220403,19
227,"t01_1_2","t01",1,2,"COM(S)","yes","PP>OBJ",1,"above","PP>OBJ >> OBJ>PP","condition 1 >> condition 2",17160,195584,15
252,"t01_1_2","t01",1,2,"COM(S)","yes","OBJ>PP",2,"below","PP>OBJ >> OBJ>PP","condition 1 >> condition 2",19002,338329,27
253,"t01_1_2","t01",1,2,"COM(S)","yes","PP>OBJ",1,"above","PP>OBJ >> OBJ>PP","condition 1 >> condition 2",7613,315124,30
268,"t01_1_2","t01",1,2,"COM(S)","yes","OBJ>PP",2,"above","OBJ>PP >> PP>OBJ","condition 2 >> condition 1",29459,127525,8
247,"t01_1_2","t01",1,2,"COM(S)","yes","OBJ>PP",2,"below","PP>OBJ >> OBJ>PP","condition 1 >> condition 2",9797,147893,16
249,"t01_1_2","t01",1,2,"COM(S)","yes","PP>OBJ",1,"above","PP>OBJ >> OBJ>PP","condition 1 >> condition 2",12046,698137,57
241,"t01_1_2","t01",1,2,"COM(S)","yes","PP>OBJ",1,"above","PP>OBJ >> OBJ>PP","condition 1 >> condition 2",9321,173167,17
220,"t01_1_2","t01",1,2,"COM(S)","yes","PP>OBJ",1,"above","PP>OBJ >> OBJ>PP","condition 1 >> condition 2",4802,180647,20
242,"t01_1_2","t01",1,2,"COM(S)","yes","PP>OBJ",1,"above","PP>OBJ >> OBJ>PP","condition 1 >> condition 2",13629,355944,31
221,"t01_1_2","t01",1,2,"COM(S)","yes","PP>OBJ",1,"above","PP>OBJ >> OBJ>PP","condition 1 >> condition 2",17308,610126,55
254,"t01_1_2","t01",1,2,"COM(S)","yes","OBJ>PP",2,"above","OBJ>PP >> PP>OBJ","condition 2 >> condition 1",15204,764984,56
257,"t01_1_2","t01",1,2,"COM(S)","yes","PP>OBJ",1,"below","OBJ>PP >> PP>OBJ","condition 2 >> condition 1",8583,395945,37
264,"t01_1_2","t01",1,2,"COM(S)","yes","PP>OBJ",1,"above","PP>OBJ >> OBJ>PP","condition 1 >> condition 2",13807,1253442,60
231,"t01_1_2","t01",1,2,"COM(S)","yes","OBJ>PP",2,"below","PP>OBJ >> OBJ>PP","condition 1 >> condition 2",8551,403226,50
240,"t01_1_2","t01",1,2,"COM(S)","yes","OBJ>PP",2,"below","PP>OBJ >> OBJ>PP","condition 1 >> condition 2",12406,172632,15
252,"t02_1_2","t02",1,2,"COM(S)","yes","PP>OBJ",1,"above","PP>OBJ >> OBJ>PP","condition 1 >> condition 2",17727,793031,66
251,"t02_1_2","t02",1,2,"COM(S)","yes","OBJ>PP",2,"above","OBJ>PP >> PP>OBJ","condition 2 >> condition 1",4943,309536,48
249,"t02_1_2","t02",1,2,"COM(S)","yes","OBJ>PP",2,"above","OBJ>PP >> PP>OBJ","condition 2 >> condition 1",17428,647089,51
270,"t02_1_2","t02",1,2,"COM(S)","yes","OBJ>PP",2,"below","PP>OBJ >> OBJ>PP","condition 1 >> condition 2",9970,805112,69
239,"t02_1_2","t02",1,2,"COM(S)","yes","PP>OBJ",1,"above","PP>OBJ >> OBJ>PP","condition 1 >> condition 2",10731,173588,17
254,"t02_1_2","t02",1,2,"COM(S)","yes","PP>OBJ",1,"below","OBJ>PP >> PP>OBJ","condition 2 >> condition 1",17072,557890,39
228,"t02_1_2","t02",1,2,"COM(S)","yes","PP>OBJ",1,"below","OBJ>PP >> PP>OBJ","condition 2 >> condition 1",10089,286320,29
232,"t02_1_2","t02",1,2,"COM(S)","yes","PP>OBJ",1,"above","PP>OBJ >> OBJ>PP","condition 1 >> condition 2",3965,421739,67
237,"t02_1_2","t02",1,2,"COM(S)","yes","PP>OBJ",1,"below","OBJ>PP >> PP>OBJ","condition 2 >> condition 1",10943,257781,27
243,"t02_1_2","t02",1,2,"COM(S)","yes","PP>OBJ",1,"above","PP>OBJ >> OBJ>PP","condition 1 >> condition 2",7555,507013,48
220,"t02_1_2","t02",1,2,"COM(S)","yes","PP>OBJ",1,"below","OBJ>PP >> PP>OBJ","condition 2 >> condition 1",10698,139176,16
264,"t02_1_2","t02",1,2,"COM(S)","yes","PP>OBJ",1,"below","OBJ>PP >> PP>OBJ","condition 2 >> condition 1",12963,418960,25
247,"t02_1_2","t02",1,2,"COM(S)","yes","OBJ>PP",2,"above","OBJ>PP >> PP>OBJ","condition 2 >> condition 1",10035,426471,49
257,"t02_1_2","t02",1,2,"COM(S)","yes","PP>OBJ",1,"above","PP>OBJ >> OBJ>PP","condition 1 >> condition 2",11952,266514,23
268,"t02_1_2","t02",1,2,"COM(S)","yes","PP>OBJ",1,"above","PP>OBJ >> OBJ>PP","condition 1 >> condition 2",11685,457605,39
223,"t02_1_2","t02",1,2,"COM(S)","yes","PP>OBJ",1,"above","PP>OBJ >> OBJ>PP","condition 1 >> condition 2",7041,129992,13
266,"t02_1_2","t02",1,2,"COM(S)","yes","PP>OBJ",1,"below","OBJ>PP >> PP>OBJ","condition 2 >> condition 1",14948,300689,23
224,"t02_1_2","t02",1,2,"COM(S)","yes","OBJ>PP",2,"below","PP>OBJ >> OBJ>PP","condition 1 >> condition 2",5907,251758,34
233,"t02_1_2","t02",1,2,"COM(S)","yes","PP>OBJ",1,"below","OBJ>PP >> PP>OBJ","condition 2 >> condition 1",5612,438583,61
263,"t02_1_2","t02",1,2,"COM(S)","yes","OBJ>PP",2,"below","PP>OBJ >> OBJ>PP","condition 1 >> condition 2",7121,537846,56
256,"t02_1_2","t02",1,2,"COM(S)","yes","PP>OBJ",1,"below","OBJ>PP >> PP>OBJ","condition 2 >> condition 1",4599,486429,48
255,"t02_1_2","t02",1,2,"COM(S)","yes","PP>OBJ",1,"above","PP>OBJ >> OBJ>PP","condition 1 >> condition 2",10735,388867,26
271,"t02_1_2","t02",1,2,"COM(S)","yes","PP>OBJ",1,"below","OBJ>PP >> PP>OBJ","condition 2 >> condition 1",6811,61210,7
229,"t02_1_2","t02",1,2,"COM(S)","yes","PP>OBJ",1,"below","OBJ>PP >> PP>OBJ","condition 2 >> condition 1",7344,252715,32
244,"t02_1_2","t02",1,2,"COM(S)","yes","OBJ>PP",2,"below","PP>OBJ >> OBJ>PP","condition 1 >> condition 2",6922,657918,70
231,"t02_1_2","t02",1,2,"COM(S)","yes","PP>OBJ",1,"below","OBJ>PP >> PP>OBJ","condition 2 >> condition 1",7168,278378,34
221,"t02_1_2","t02",1,2,"COM(S)","yes","PP>OBJ",1,"below","OBJ>PP >> PP>OBJ","condition 2 >> condition 1",6672,548026,49
242,"t02_1_2","t02",1,2,"COM(S)","yes","PP>OBJ",1,"below","OBJ>PP >> PP>OBJ","condition 2 >> condition 1",14047,221609,18
241,"t02_1_2","t02",1,2,"COM(S)","yes","OBJ>PP",2,"below","PP>OBJ >> OBJ>PP","condition 1 >> condition 2",18937,81484,7
238,"t02_1_2","t02",1,2,"COM(S)","yes","OBJ>PP",2,"below","PP>OBJ >> OBJ>PP","condition 1 >> condition 2",7456,351524,45
222,"t02_1_2","t02",1,2,"COM(S)","yes","PP>OBJ",1,"above","PP>OBJ >> OBJ>PP","condition 1 >> condition 2",8824,421754,45
258,"t02_1_2","t02",1,2,"COM(S)","yes","PP>OBJ",1,"above","PP>OBJ >> OBJ>PP","condition 1 >> condition 2",6679,636735,66
234,"t02_1_2","t02",1,2,"COM(S)","yes","OBJ>PP",2,"below","PP>OBJ >> OBJ>PP","condition 1 >> condition 2",6333,317356,27
267,"t02_1_2","t02",1,2,"COM(S)","yes","OBJ>PP",2,"below","PP>OBJ >> OBJ>PP","condition 1 >> condition 2",9216,415477,33
227,"t02_1_2","t02",1,2,"COM(S)","yes","PP>OBJ",1,"above","PP>OBJ >> OBJ>PP","condition 1 >> condition 2",10918,677995,57
245,"t02_1_2","t02",1,2,"COM(S)","yes","PP>OBJ",1,"above","PP>OBJ >> OBJ>PP","condition 1 >> condition 2",10683,694665,50
230,"t02_1_2","t02",1,2,"COM(S)","yes","OBJ>PP",2,"above","OBJ>PP >> PP>OBJ","condition 2 >> condition 1",11754,269368,29
253,"t02_1_2","t02",1,2,"COM(S)","yes","PP>OBJ",1,"below","OBJ>PP >> PP>OBJ","condition 2 >> condition 1",7886,277215,26
236,"t02_1_2","t02",1,2,"COM(S)","yes","PP>OBJ",1,"above","PP>OBJ >> OBJ>PP","condition 1 >> condition 2",10090,545063,47
225,"t02_1_2","t02",1,2,"COM(S)","yes","OBJ>PP",2,"above","OBJ>PP >> PP>OBJ","condition 2 >> condition 1",9069,461351,55
248,"t02_1_2","t02",1,2,"COM(S)","yes","OBJ>PP",2,"above","OBJ>PP >> PP>OBJ","condition 2 >> condition 1",7600,1483169,64
246,"t02_1_2","t02",1,2,"COM(S)","yes","PP>OBJ",1,"below","OBJ>PP >> PP>OBJ","condition 2 >> condition 1",6839,409032,42
240,"t02_1_2","t02",1,2,"COM(S)","yes","PP>OBJ",1,"below","OBJ>PP >> PP>OBJ","condition 2 >> condition 1",5879,478687,52
235,"t02_1_2","t02",1,2,"COM(S)","yes","PP>OBJ",1,"above","PP>OBJ >> OBJ>PP","condition 1 >> condition 2",4146,345236,53
269,"t02_1_2","t02",1,2,"COM(S)","yes","OBJ>PP",2,"above","OBJ>PP >> PP>OBJ","condition 2 >> condition 1",15545,1045515,54
266,"t03_1_2","t03",1,2,"COM(S)","yes","PP>OBJ",1,"below","OBJ>PP >> PP>OBJ","condition 2 >> condition 1",9105,243756,19
229,"t03_1_2","t03",1,2,"COM(S)","yes","OBJ>PP",2,"below","PP>OBJ >> OBJ>PP","condition 1 >> condition 2",6486,126393,16
268,"t03_1_2","t03",1,2,"COM(S)","yes","PP>OBJ",1,"below","OBJ>PP >> PP>OBJ","condition 2 >> condition 1",12365,353559,29
253,"t03_1_2","t03",1,2,"COM(S)","yes","PP>OBJ",1,"below","OBJ>PP >> PP>OBJ","condition 2 >> condition 1",6796,262053,24
248,"t03_1_2","t03",1,2,"COM(S)","yes","OBJ>PP",2,"above","OBJ>PP >> PP>OBJ","condition 2 >> condition 1",7854,331910,16
232,"t03_1_2","t03",1,2,"COM(S)","yes","PP>OBJ",1,"below","OBJ>PP >> PP>OBJ","condition 2 >> condition 1",6873,351773,54
238,"t03_1_2","t03",1,2,"COM(S)","yes","PP>OBJ",1,"above","PP>OBJ >> OBJ>PP","condition 1 >> condition 2",5927,136268,17
267,"t03_1_2","t03",1,2,"COM(S)","yes","OBJ>PP",2,"below","PP>OBJ >> OBJ>PP","condition 1 >> condition 2",6947,662526,47
246,"t03_1_2","t03",1,2,"COM(S)","yes","PP>OBJ",1,"above","PP>OBJ >> OBJ>PP","condition 1 >> condition 2",6119,223591,24
249,"t03_1_2","t03",1,2,"COM(S)","yes","OBJ>PP",2,"below","PP>OBJ >> OBJ>PP","condition 1 >> condition 2",8589,672305,54
258,"t03_1_2","t03",1,2,"COM(S)","yes","PP>OBJ",1,"below","OBJ>PP >> PP>OBJ","condition 2 >> condition 1",7718,97785,10
225,"t03_1_2","t03",1,2,"COM(S)","yes","OBJ>PP",2,"above","OBJ>PP >> PP>OBJ","condition 2 >> condition 1",8892,551448,66
243,"t03_1_2","t03",1,2,"COM(S)","yes","PP>OBJ",1,"above","PP>OBJ >> OBJ>PP","condition 1 >> condition 2",16239,588553,56
237,"t03_1_2","t03",1,2,"COM(S)","yes","OBJ>PP",2,"below","PP>OBJ >> OBJ>PP","condition 1 >> condition 2",5711,504940,52
222,"t03_1_2","t03",1,2,"COM(S)","yes","PP>OBJ",1,"above","PP>OBJ >> OBJ>PP","condition 1 >> condition 2",11397,133684,11
270,"t03_1_2","t03",1,2,"COM(S)","yes","PP>OBJ",1,"below","OBJ>PP >> PP>OBJ","condition 2 >> condition 1",19236,76655,6
220,"t03_1_2","t03",1,2,"COM(S)","yes","OBJ>PP",2,"above","OBJ>PP >> PP>OBJ","condition 2 >> condition 1",7731,289713,31
241,"t03_1_2","t03",1,2,"COM(S)","yes","OBJ>PP",2,"below","PP>OBJ >> OBJ>PP","condition 1 >> condition 2",5962,458463,56
236,"t03_1_2","t03",1,2,"COM(S)","yes","OBJ>PP",2,"below","PP>OBJ >> OBJ>PP","condition 1 >> condition 2",14044,87962,7
242,"t03_1_2","t03",1,2,"COM(S)","yes","PP>OBJ",1,"above","PP>OBJ >> OBJ>PP","condition 1 >> condition 2",8032,467959,45
256,"t03_1_2","t03",1,2,"COM(S)","yes","OBJ>PP",2,"below","PP>OBJ >> OBJ>PP","condition 1 >> condition 2",7329,604477,61
251,"t03_1_2","t03",1,2,"COM(S)","yes","OBJ>PP",2,"above","OBJ>PP >> PP>OBJ","condition 2 >> condition 1",10311,84750,9
221,"t03_1_2","t03",1,2,"COM(S)","yes","PP>OBJ",1,"below","OBJ>PP >> PP>OBJ","condition 2 >> condition 1",9892,237987,17
271,"t03_1_2","t03",1,2,"COM(S)","yes","PP>OBJ",1,"above","PP>OBJ >> OBJ>PP","condition 1 >> condition 2",10719,90232,10
257,"t03_1_2","t03",1,2,"COM(S)","yes","PP>OBJ",1,"above","PP>OBJ >> OBJ>PP","condition 1 >> condition 2",9849,689140,70
227,"t03_1_2","t03",1,2,"COM(S)","yes","PP>OBJ",1,"below","OBJ>PP >> PP>OBJ","condition 2 >> condition 1",19777,243178,19
239,"t03_1_2","t03",1,2,"COM(S)","yes","PP>OBJ",1,"above","PP>OBJ >> OBJ>PP","condition 1 >> condition 2",8317,558434,70
244,"t03_1_2","t03",1,2,"COM(S)","yes","OBJ>PP",2,"below","PP>OBJ >> OBJ>PP","condition 1 >> condition 2",5357,234933,24
240,"t03_1_2","t03",1,2,"COM(S)","yes","PP>OBJ",1,"below","OBJ>PP >> PP>OBJ","condition 2 >> condition 1",8230,558935,61
231,"t03_1_2","t03",1,2,"COM(S)","yes","PP>OBJ",1,"below","OBJ>PP >> PP>OBJ","condition 2 >> condition 1",8018,351264,43
263,"t03_1_2","t03",1,2,"COM(S)","yes","PP>OBJ",1,"below","OBJ>PP >> PP>OBJ","condition 2 >> condition 1",7956,344762,21
269,"t03_1_2","t03",1,2,"COM(S)","yes","OBJ>PP",2,"below","PP>OBJ >> OBJ>PP","condition 1 >> condition 2",17517,1013266,52
223,"t03_1_2","t03",1,2,"COM(S)","yes","PP>OBJ",1,"above","PP>OBJ >> OBJ>PP","condition 1 >> condition 2",8007,616008,65
245,"t03_1_2","t03",1,2,"COM(S)","yes","OBJ>PP",2,"above","OBJ>PP >> PP>OBJ","condition 2 >> condition 1",20556,861629,63
233,"t03_1_2","t03",1,2,"COM(S)","yes","OBJ>PP",2,"above","OBJ>PP >> PP>OBJ","condition 2 >> condition 1",5668,337535,44
254,"t03_1_2","t03",1,2,"COM(S)","yes","OBJ>PP",2,"below","PP>OBJ >> OBJ>PP","condition 1 >> condition 2",8437,927880,69
255,"t03_1_2","t03",1,2,"COM(S)","yes","PP>OBJ",1,"above","PP>OBJ >> OBJ>PP","condition 1 >> condition 2",7526,765375,57
264,"t03_1_2","t03",1,2,"COM(S)","yes","PP>OBJ",1,"below","OBJ>PP >> PP>OBJ","condition 2 >> condition 1",6980,1231165,58
252,"t03_1_2","t03",1,2,"COM(S)","yes","OBJ>PP",2,"above","OBJ>PP >> PP>OBJ","condition 2 >> condition 1",24699,123092,10
235,"t03_1_2","t03",1,2,"COM(S)","yes","PP>OBJ",1,"below","OBJ>PP >> PP>OBJ","condition 2 >> condition 1",4399,395940,62
234,"t03_1_2","t03",1,2,"COM(S)","yes","PP>OBJ",1,"below","OBJ>PP >> PP>OBJ","condition 2 >> condition 1",10937,666065,58
247,"t03_1_2","t03",1,2,"COM(S)","yes","PP>OBJ",1,"below","OBJ>PP >> PP>OBJ","condition 2 >> condition 1",8100,259664,28
224,"t03_1_2","t03",1,2,"COM(S)","yes","OBJ>PP",2,"below","PP>OBJ >> OBJ>PP","condition 1 >> condition 2",5881,450034,62
230,"t03_1_2","t03",1,2,"COM(S)","yes","OBJ>PP",2,"above","OBJ>PP >> PP>OBJ","condition 2 >> condition 1",5333,479335,56
228,"t03_1_2","t03",1,2,"COM(S)","yes","PP>OBJ",1,"below","OBJ>PP >> PP>OBJ","condition 2 >> condition 1",7684,632825,66
258,"t04_1_2","t04",1,2,"COM(S)","yes","PP>OBJ",1,"below","OBJ>PP >> PP>OBJ","condition 2 >> condition 1",14098,557038,57
230,"t04_1_2","t04",1,2,"COM(S)","yes","PP>OBJ",1,"below","OBJ>PP >> PP>OBJ","condition 2 >> condition 1",5023,465675,54
225,"t04_1_2","t04",1,2,"COM(S)","yes","PP>OBJ",1,"below","OBJ>PP >> PP>OBJ","condition 2 >> condition 1",5117,68933,9
247,"t04_1_2","t04",1,2,"COM(S)","yes","OBJ>PP",2,"above","OBJ>PP >> PP>OBJ","condition 2 >> condition 1",7361,228854,24
233,"t04_1_2","t04",1,2,"COM(S)","yes","OBJ>PP",2,"below","PP>OBJ >> OBJ>PP","condition 1 >> condition 2",11354,141431,16
228,"t04_1_2","t04",1,2,"COM(S)","yes","PP>OBJ",1,"below","OBJ>PP >> PP>OBJ","condition 2 >> condition 1",9476,180896,16
253,"t04_1_2","t04",1,2,"COM(S)","yes","PP>OBJ",1,"below","OBJ>PP >> PP>OBJ","condition 2 >> condition 1",7438,176156,14
263,"t04_1_2","t04",1,2,"COM(S)","yes","PP>OBJ",1,"above","PP>OBJ >> OBJ>PP","condition 1 >> condition 2",204821,270408,10
237,"t04_1_2","t04",1,2,"COM(S)","yes","PP>OBJ",1,"above","PP>OBJ >> OBJ>PP","condition 1 >> condition 2",7725,562313,61
242,"t04_1_2","t04",1,2,"COM(S)","yes","PP>OBJ",1,"below","OBJ>PP >> PP>OBJ","condition 2 >> condition 1",6433,546296,56
252,"t04_1_2","t04",1,2,"COM(S)","yes","OBJ>PP",2,"below","PP>OBJ >> OBJ>PP","condition 1 >> condition 2",9161,827367,70
257,"t04_1_2","t04",1,2,"COM(S)","yes","PP>OBJ",1,"below","OBJ>PP >> PP>OBJ","condition 2 >> condition 1",8364,519162,53
246,"t04_1_2","t04",1,2,"COM(S)","yes","PP>OBJ",1,"below","OBJ>PP >> PP>OBJ","condition 2 >> condition 1",6414,210279,22
256,"t04_1_2","t04",1,2,"COM(S)","yes","OBJ>PP",2,"below","PP>OBJ >> OBJ>PP","condition 1 >> condition 2",18891,281115,27
266,"t04_1_2","t04",1,2,"COM(S)","yes","PP>OBJ",1,"below","OBJ>PP >> PP>OBJ","condition 2 >> condition 1",14324,127958,10
249,"t04_1_2","t04",1,2,"COM(S)","yes","OBJ>PP",2,"below","PP>OBJ >> OBJ>PP","condition 1 >> condition 2",24759,168345,11
238,"t04_1_2","t04",1,2,"COM(S)","yes","OBJ>PP",2,"below","PP>OBJ >> OBJ>PP","condition 1 >> condition 2",8215,59812,6
243,"t04_1_2","t04",1,2,"COM(S)","yes","PP>OBJ",1,"above","PP>OBJ >> OBJ>PP","condition 1 >> condition 2",8746,356380,33
245,"t04_1_2","t04",1,2,"COM(S)","yes","PP>OBJ",1,"below","OBJ>PP >> PP>OBJ","condition 2 >> condition 1",16418,423112,28
236,"t04_1_2","t04",1,2,"COM(S)","yes","PP>OBJ",1,"below","OBJ>PP >> PP>OBJ","condition 2 >> condition 1",9447,734800,68
271,"t04_1_2","t04",1,2,"COM(S)","yes","PP>OBJ",1,"below","OBJ>PP >> PP>OBJ","condition 2 >> condition 1",8829,123235,14
255,"t04_1_2","t04",1,2,"COM(S)","yes","OBJ>PP",2,"above","OBJ>PP >> PP>OBJ","condition 2 >> condition 1",9703,747446,55
232,"t04_1_2","t04",1,2,"COM(S)","yes","PP>OBJ",1,"above","PP>OBJ >> OBJ>PP","condition 1 >> condition 2",4386,294520,44
220,"t04_1_2","t04",1,2,"COM(S)","yes","PP>OBJ",1,"above","PP>OBJ >> OBJ>PP","condition 1 >> condition 2",16310,169987,18
270,"t04_1_2","t04",1,2,"COM(S)","yes","PP>OBJ",1,"below","OBJ>PP >> PP>OBJ","condition 2 >> condition 1",13678,723248,61
222,"t04_1_2","t04",1,2,"COM(S)","yes","OBJ>PP",2,"above","OBJ>PP >> PP>OBJ","condition 2 >> condition 1",7754,455166,49
264,"t04_1_2","t04",1,2,"COM(S)","yes","PP>OBJ",1,"below","OBJ>PP >> PP>OBJ","condition 2 >> condition 1",6708,1065186,50
244,"t04_1_2","t04",1,2,"COM(S)","yes","PP>OBJ",1,"below","OBJ>PP >> PP>OBJ","condition 2 >> condition 1",7391,548187,62
223,"t04_1_2","t04",1,2,"COM(S)","yes","PP>OBJ",1,"below","OBJ>PP >> PP>OBJ","condition 2 >> condition 1",8025,280002,31
234,"t04_1_2","t04",1,2,"COM(S)","yes","PP>OBJ",1,"below","OBJ>PP >> PP>OBJ","condition 2 >> condition 1",8490,414712,35
229,"t04_1_2","t04",1,2,"COM(S)","yes","PP>OBJ",1,"below","OBJ>PP >> PP>OBJ","condition 2 >> condition 1",10525,278077,35
268,"t04_1_2","t04",1,2,"COM(S)","yes","OBJ>PP",2,"below","PP>OBJ >> OBJ>PP","condition 1 >> condition 2",7748,694157,67
227,"t04_1_2","t04",1,2,"COM(S)","yes","OBJ>PP",2,"above","OBJ>PP >> PP>OBJ","condition 2 >> condition 1",22946,573541,45
221,"t04_1_2","t04",1,2,"COM(S)","yes","PP>OBJ",1,"below","OBJ>PP >> PP>OBJ","condition 2 >> condition 1",8865,517123,45
231,"t04_1_2","t04",1,2,"COM(S)","yes","PP>OBJ",1,"above","PP>OBJ >> OBJ>PP","condition 1 >> condition 2",8056,372148,46
248,"t04_1_2","t04",1,2,"COM(S)","yes","OBJ>PP",2,"below","PP>OBJ >> OBJ>PP","condition 1 >> condition 2",89032,1372985,57
254,"t04_1_2","t04",1,2,"COM(S)","yes","PP>OBJ",1,"below","OBJ>PP >> PP>OBJ","condition 2 >> condition 1",19207,440410,28
224,"t04_1_2","t04",1,2,"COM(S)","yes","OBJ>PP",2,"above","OBJ>PP >> PP>OBJ","condition 2 >> condition 1",5857,507005,70
251,"t04_1_2","t04",1,2,"COM(S)","yes","PP>OBJ",1,"below","OBJ>PP >> PP>OBJ","condition 2 >> condition 1",3765,122387,15
239,"t04_1_2","t04",1,2,"COM(S)","yes","PP>OBJ",1,"below","OBJ>PP >> PP>OBJ","condition 2 >> condition 1",9959,488518,58
235,"t04_1_2","t04",1,2,"COM(S)","yes","OBJ>PP",2,"above","OBJ>PP >> PP>OBJ","condition 2 >> condition 1",9151,160564,20
240,"t04_1_2","t04",1,2,"COM(S)","yes","PP>OBJ",1,"above","PP>OBJ >> OBJ>PP","condition 1 >> condition 2",9574,540142,59
269,"t04_1_2","t04",1,2,"COM(S)","yes","PP>OBJ",1,"below","OBJ>PP >> PP>OBJ","condition 2 >> condition 1",63786,332498,16
241,"t04_1_2","t04",1,2,"COM(S)","yes","OBJ>PP",2,"above","OBJ>PP >> PP>OBJ","condition 2 >> condition 1",26198,117113,10
267,"t04_1_2","t04",1,2,"COM(S)","yes","OBJ>PP",2,"below","PP>OBJ >> OBJ>PP","condition 1 >> condition 2",17959,824642,66
264,"t05_1_2","t05",1,2,"COM(S)","yes","PP>OBJ",1,"above","PP>OBJ >> OBJ>PP","condition 1 >> condition 2",93963,941923,42
224,"t05_1_2","t05",1,2,"COM(S)","yes","OBJ>PP",2,"below","PP>OBJ >> OBJ>PP","condition 1 >> condition 2",5360,416508,56
233,"t05_1_2","t05",1,2,"COM(S)","yes","OBJ>PP",2,"below","PP>OBJ >> OBJ>PP","condition 1 >> condition 2",8989,200656,22
268,"t05_1_2","t05",1,2,"COM(S)","yes","PP>OBJ",1,"below","OBJ>PP >> PP>OBJ","condition 2 >> condition 1",5103,181136,14
222,"t05_1_2","t05",1,2,"COM(S)","yes","PP>OBJ",1,"above","PP>OBJ >> OBJ>PP","condition 1 >> condition 2",8298,291560,30
220,"t05_1_2","t05",1,2,"COM(S)","yes","PP>OBJ",1,"below","OBJ>PP >> PP>OBJ","condition 2 >> condition 1",5376,303489,33
242,"t05_1_2","t05",1,2,"COM(S)","yes","PP>OBJ",1,"above","PP>OBJ >> OBJ>PP","condition 1 >> condition 2",6315,577897,60
232,"t05_1_2","t05",1,2,"COM(S)","yes","OBJ>PP",2,"above","OBJ>PP >> PP>OBJ","condition 2 >> condition 1",4604,176989,29
225,"t05_1_2","t05",1,2,"COM(S)","yes","OBJ>PP",2,"below","PP>OBJ >> OBJ>PP","condition 1 >> condition 2",4855,372302,45
244,"t05_1_2","t05",1,2,"COM(S)","yes","PP>OBJ",1,"below","OBJ>PP >> PP>OBJ","condition 2 >> condition 1",13670,122170,11
257,"t05_1_2","t05",1,2,"COM(S)","yes","PP>OBJ",1,"above","PP>OBJ >> OBJ>PP","condition 1 >> condition 2",10157,299123,26
252,"t05_1_2","t05",1,2,"COM(S)","yes","OBJ>PP",2,"above","OBJ>PP >> PP>OBJ","condition 2 >> condition 1",10307,297320,23
228,"t05_1_2","t05",1,2,"COM(S)","yes","PP>OBJ",1,"below","OBJ>PP >> PP>OBJ","condition 2 >> condition 1",8478,419756,42
254,"t05_1_2","t05",1,2,"COM(S)","yes","PP>OBJ",1,"above","PP>OBJ >> OBJ>PP","condition 1 >> condition 2",15241,166288,10
243,"t05_1_2","t05",1,2,"COM(S)","yes","PP>OBJ",1,"above","PP>OBJ >> OBJ>PP","condition 1 >> condition 2",26435,222530,20
241,"t05_1_2","t05",1,2,"COM(S)","yes","OBJ>PP",2,"above","OBJ>PP >> PP>OBJ","condition 2 >> condition 1",7168,249210,26
247,"t05_1_2","t05",1,2,"COM(S)","yes","OBJ>PP",2,"above","OBJ>PP >> PP>OBJ","condition 2 >> condition 1",12510,100094,10
237,"t05_1_2","t05",1,2,"COM(S)","yes","PP>OBJ",1,"above","PP>OBJ >> OBJ>PP","condition 1 >> condition 2",8445,548861,59
227,"t05_1_2","t05",1,2,"COM(S)","yes","PP>OBJ",1,"below","OBJ>PP >> PP>OBJ","condition 2 >> condition 1",19169,424375,33
235,"t05_1_2","t05",1,2,"COM(S)","yes","OBJ>PP",2,"below","PP>OBJ >> OBJ>PP","condition 1 >> condition 2",5601,250478,35
238,"t05_1_2","t05",1,2,"COM(S)","yes","PP>OBJ",1,"below","OBJ>PP >> PP>OBJ","condition 2 >> condition 1",5895,461059,62
258,"t05_1_2","t05",1,2,"COM(S)","yes","OBJ>PP",2,"above","OBJ>PP >> PP>OBJ","condition 2 >> condition 1",7288,111975,12
239,"t05_1_2","t05",1,2,"COM(S)","yes","OBJ>PP",2,"below","PP>OBJ >> OBJ>PP","condition 1 >> condition 2",13257,131128,12
267,"t05_1_2","t05",1,2,"COM(S)","yes","OBJ>PP",2,"above","OBJ>PP >> PP>OBJ","condition 2 >> condition 1",11989,260215,18
234,"t05_1_2","t05",1,2,"COM(S)","yes","PP>OBJ",1,"above","PP>OBJ >> OBJ>PP","condition 1 >> condition 2",13034,515793,44
256,"t05_1_2","t05",1,2,"COM(S)","yes","OBJ>PP",2,"below","PP>OBJ >> OBJ>PP","condition 1 >> condition 2",8812,194157,20
266,"t05_1_2","t05",1,2,"COM(S)","yes","PP>OBJ",1,"above","PP>OBJ >> OBJ>PP","condition 1 >> condition 2",11744,264626,21
270,"t05_1_2","t05",1,2,"COM(S)","yes","PP>OBJ",1,"below","OBJ>PP >> PP>OBJ","condition 2 >> condition 1",10328,751215,64
231,"t05_1_2","t05",1,2,"COM(S)","yes","OBJ>PP",2,"below","PP>OBJ >> OBJ>PP","condition 1 >> condition 2",8039,440526,54
248,"t05_1_2","t05",1,2,"COM(S)","yes","OBJ>PP",2,"below","PP>OBJ >> OBJ>PP","condition 1 >> condition 2",6297,742357,40
263,"t05_1_2","t05",1,2,"COM(S)","yes","OBJ>PP",2,"below","PP>OBJ >> OBJ>PP","condition 1 >> condition 2",4838,489293,49
269,"t05_1_2","t05",1,2,"COM(S)","yes","PP>OBJ",1,"below","OBJ>PP >> PP>OBJ","condition 2 >> condition 1",18652,1264282,69
223,"t05_1_2","t05",1,2,"COM(S)","yes","PP>OBJ",1,"below","OBJ>PP >> PP>OBJ","condition 2 >> condition 1",12230,639864,68
251,"t05_1_2","t05",1,2,"COM(S)","yes","OBJ>PP",2,"below","PP>OBJ >> OBJ>PP","condition 1 >> condition 2",4235,363212,61
271,"t05_1_2","t05",1,2,"COM(S)","yes","OBJ>PP",2,"below","PP>OBJ >> OBJ>PP","condition 1 >> condition 2",5685,293853,37
255,"t05_1_2","t05",1,2,"COM(S)","yes","OBJ>PP",2,"above","OBJ>PP >> PP>OBJ","condition 2 >> condition 1",16838,261790,17
246,"t05_1_2","t05",1,2,"COM(S)","yes","OBJ>PP",2,"above","OBJ>PP >> PP>OBJ","condition 2 >> condition 1",17417,148670,14
253,"t05_1_2","t05",1,2,"COM(S)","yes","PP>OBJ",1,"above","PP>OBJ >> OBJ>PP","condition 1 >> condition 2",16627,347197,32
229,"t05_1_2","t05",1,2,"COM(S)","yes","PP>OBJ",1,"above","PP>OBJ >> OBJ>PP","condition 1 >> condition 2",9758,309972,38
249,"t05_1_2","t05",1,2,"COM(S)","yes","PP>OBJ",1,"above","PP>OBJ >> OBJ>PP","condition 1 >> condition 2",8446,307474,22
245,"t05_1_2","t05",1,2,"COM(S)","yes","PP>OBJ",1,"below","OBJ>PP >> PP>OBJ","condition 2 >> condition 1",12329,761635,55
221,"t05_1_2","t05",1,2,"COM(S)","yes","OBJ>PP",2,"below","PP>OBJ >> OBJ>PP","condition 1 >> condition 2",17275,285200,21
230,"t05_1_2","t05",1,2,"COM(S)","yes","PP>OBJ",1,"above","PP>OBJ >> OBJ>PP","condition 1 >> condition 2",6075,578918,70
236,"t05_1_2","t05",1,2,"COM(S)","yes","OBJ>PP",2,"below","PP>OBJ >> OBJ>PP","condition 1 >> condition 2",9168,520200,44
240,"t05_1_2","t05",1,2,"COM(S)","yes","PP>OBJ",1,"below","OBJ>PP >> PP>OBJ","condition 2 >> condition 1",15264,523767,57
224,"t06_1_2","t06",1,2,"COM(S)","yes","PP>OBJ",1,"above","PP>OBJ >> OBJ>PP","condition 1 >> condition 2",7423,367886,50
221,"t06_1_2","t06",1,2,"COM(S)","yes","OBJ>PP",2,"above","OBJ>PP >> PP>OBJ","condition 2 >> condition 1",13438,453660,37
266,"t06_1_2","t06",1,2,"COM(S)","yes","PP>OBJ",1,"below","OBJ>PP >> PP>OBJ","condition 2 >> condition 1",11141,354799,28
230,"t06_1_2","t06",1,2,"COM(S)","yes","PP>OBJ",1,"above","PP>OBJ >> OBJ>PP","condition 1 >> condition 2",7693,108580,10
239,"t06_1_2","t06",1,2,"COM(S)","yes","PP>OBJ",1,"below","OBJ>PP >> PP>OBJ","condition 2 >> condition 1",7122,423714,49
268,"t06_1_2","t06",1,2,"COM(S)","yes","PP>OBJ",1,"above","PP>OBJ >> OBJ>PP","condition 1 >> condition 2",20486,79273,6
243,"t06_1_2","t06",1,2,"COM(S)","yes","PP>OBJ",1,"above","PP>OBJ >> OBJ>PP","condition 1 >> condition 2",14690,305968,28
245,"t06_1_2","t06",1,2,"COM(S)","yes","PP>OBJ",1,"above","PP>OBJ >> OBJ>PP","condition 1 >> condition 2",16616,358979,23
238,"t06_1_2","t06",1,2,"COM(S)","yes","OBJ>PP",2,"above","OBJ>PP >> PP>OBJ","condition 2 >> condition 1",6958,221339,28
228,"t06_1_2","t06",1,2,"COM(S)","yes","PP>OBJ",1,"above","PP>OBJ >> OBJ>PP","condition 1 >> condition 2",6247,270849,27
246,"t06_1_2","t06",1,2,"COM(S)","yes","PP>OBJ",1,"above","PP>OBJ >> OBJ>PP","condition 1 >> condition 2",8899,163698,16
263,"t06_1_2","t06",1,2,"COM(S)","yes","PP>OBJ",1,"above","PP>OBJ >> OBJ>PP","condition 1 >> condition 2",7927,303076,15
229,"t06_1_2","t06",1,2,"COM(S)","yes","PP>OBJ",1,"above","PP>OBJ >> OBJ>PP","condition 1 >> condition 2",9118,106554,13
256,"t06_1_2","t06",1,2,"COM(S)","yes","PP>OBJ",1,"above","PP>OBJ >> OBJ>PP","condition 1 >> condition 2",14435,367509,36
240,"t06_1_2","t06",1,2,"COM(S)","yes","PP>OBJ",1,"above","PP>OBJ >> OBJ>PP","condition 1 >> condition 2",13614,79232,7
258,"t06_1_2","t06",1,2,"COM(S)","yes","PP>OBJ",1,"above","PP>OBJ >> OBJ>PP","condition 1 >> condition 2",7618,392694,39
257,"t06_1_2","t06",1,2,"COM(S)","yes","PP>OBJ",1,"below","OBJ>PP >> PP>OBJ","condition 2 >> condition 1",8092,654153,67
220,"t06_1_2","t06",1,2,"COM(S)","yes","PP>OBJ",1,"above","PP>OBJ >> OBJ>PP","condition 1 >> condition 2",6297,365739,40
234,"t06_1_2","t06",1,2,"COM(S)","yes","OBJ>PP",2,"above","OBJ>PP >> PP>OBJ","condition 2 >> condition 1",17944,597110,51
247,"t06_1_2","t06",1,2,"COM(S)","yes","PP>OBJ",1,"below","OBJ>PP >> PP>OBJ","condition 2 >> condition 1",9771,491967,58
253,"t06_1_2","t06",1,2,"COM(S)","yes","PP>OBJ",1,"above","PP>OBJ >> OBJ>PP","condition 1 >> condition 2",10403,688377,69
267,"t06_1_2","t06",1,2,"COM(S)","yes","PP>OBJ",1,"below","OBJ>PP >> PP>OBJ","condition 2 >> condition 1",14098,337117,25
248,"t06_1_2","t06",1,2,"COM(S)","yes","OBJ>PP",2,"below","PP>OBJ >> OBJ>PP","condition 1 >> condition 2",29292,938538,50
264,"t06_1_2","t06",1,2,"COM(S)","yes","OBJ>PP",2,"above","OBJ>PP >> PP>OBJ","condition 2 >> condition 1",8324,797774,37
249,"t06_1_2","t06",1,2,"COM(S)","yes","PP>OBJ",1,"above","PP>OBJ >> OBJ>PP","condition 1 >> condition 2",12165,602857,47
233,"t06_1_2","t06",1,2,"COM(S)","yes","PP>OBJ",1,"above","PP>OBJ >> OBJ>PP","condition 1 >> condition 2",5796,290383,38
236,"t06_1_2","t06",1,2,"COM(S)","yes","PP>OBJ",1,"above","PP>OBJ >> OBJ>PP","condition 1 >> condition 2",13120,328438,26
222,"t06_1_2","t06",1,2,"COM(S)","yes","OBJ>PP",2,"below","PP>OBJ >> OBJ>PP","condition 1 >> condition 2",9653,601756,67
271,"t06_1_2","t06",1,2,"COM(S)","yes","OBJ>PP",2,"below","PP>OBJ >> OBJ>PP","condition 1 >> condition 2",7786,358338,43
235,"t06_1_2","t06",1,2,"COM(S)","yes","OBJ>PP",2,"below","PP>OBJ >> OBJ>PP","condition 1 >> condition 2",7429,264335,37
237,"t06_1_2","t06",1,2,"COM(S)","yes","OBJ>PP",2,"below","PP>OBJ >> OBJ>PP","condition 1 >> condition 2",8154,397744,39
227,"t06_1_2","t06",1,2,"COM(S)","yes","PP>OBJ",1,"below","OBJ>PP >> PP>OBJ","condition 2 >> condition 1",15046,119132,9
225,"t06_1_2","t06",1,2,"COM(S)","yes","OBJ>PP",2,"above","OBJ>PP >> PP>OBJ","condition 2 >> condition 1",13478,314893,37
241,"t06_1_2","t06",1,2,"COM(S)","yes","PP>OBJ",1,"above","PP>OBJ >> OBJ>PP","condition 1 >> condition 2",11094,382230,44
251,"t06_1_2","t06",1,2,"COM(S)","yes","OBJ>PP",2,"below","PP>OBJ >> OBJ>PP","condition 1 >> condition 2",4153,334952,54
269,"t06_1_2","t06",1,2,"COM(S)","yes","PP>OBJ",1,"below","OBJ>PP >> PP>OBJ","condition 2 >> condition 1",22925,1171440,62
223,"t06_1_2","t06",1,2,"COM(S)","yes","PP>OBJ",1,"below","OBJ>PP >> PP>OBJ","condition 2 >> condition 1",12416,97117,9
232,"t06_1_2","t06",1,2,"COM(S)","yes","PP>OBJ",1,"above","PP>OBJ >> OBJ>PP","condition 1 >> condition 2",4138,112254,16
242,"t06_1_2","t06",1,2,"COM(S)","yes","PP>OBJ",1,"above","PP>OBJ >> OBJ>PP","condition 1 >> condition 2",5129,407313,38
270,"t06_1_2","t06",1,2,"COM(S)","yes","OBJ>PP",2,"above","OBJ>PP >> PP>OBJ","condition 2 >> condition 1",13018,546608,45
255,"t06_1_2","t06",1,2,"COM(S)","yes","PP>OBJ",1,"above","PP>OBJ >> OBJ>PP","condition 1 >> condition 2",14358,697628,51
231,"t06_1_2","t06",1,2,"COM(S)","yes","PP>OBJ",1,"below","OBJ>PP >> PP>OBJ","condition 2 >> condition 1",8290,139554,17
252,"t06_1_2","t06",1,2,"COM(S)","yes","PP>OBJ",1,"above","PP>OBJ >> OBJ>PP","condition 1 >> condition 2",13606,563655,47
254,"t06_1_2","t06",1,2,"COM(S)","yes","PP>OBJ",1,"above","PP>OBJ >> OBJ>PP","condition 1 >> condition 2",10898,415088,26
244,"t06_1_2","t06",1,2,"COM(S)","yes","PP>OBJ",1,"below","OBJ>PP >> PP>OBJ","condition 2 >> condition 1",12913,515076,57
227,"t07_1_2","t07",1,2,"COM(S)","no","PP>OBJ",1,"below","OBJ>PP >> PP>OBJ","condition 2 >> condition 1",4474,719851,63
246,"t07_1_2","t07",1,2,"COM(S)","no","OBJ>PP",2,"above","OBJ>PP >> PP>OBJ","condition 2 >> condition 1",7810,561422,62
231,"t07_1_2","t07",1,2,"COM(S)","no","OBJ>PP",2,"below","PP>OBJ >> OBJ>PP","condition 1 >> condition 2",14279,68793,7
266,"t07_1_2","t07",1,2,"COM(S)","no","PP>OBJ",1,"above","PP>OBJ >> OBJ>PP","condition 1 >> condition 2",15514,187443,15
223,"t07_1_2","t07",1,2,"COM(S)","no","PP>OBJ",1,"above","PP>OBJ >> OBJ>PP","condition 1 >> condition 2",9376,180733,19
264,"t07_1_2","t07",1,2,"COM(S)","no","OBJ>PP",2,"below","PP>OBJ >> OBJ>PP","condition 1 >> condition 2",8121,464499,29
242,"t07_1_2","t07",1,2,"COM(S)","no","OBJ>PP",2,"below","PP>OBJ >> OBJ>PP","condition 1 >> condition 2",5814,621555,65
239,"t07_1_2","t07",1,2,"COM(S)","no","OBJ>PP",2,"below","PP>OBJ >> OBJ>PP","condition 1 >> condition 2",15138,208999,20
247,"t07_1_2","t07",1,2,"COM(S)","no","PP>OBJ",1,"below","OBJ>PP >> PP>OBJ","condition 2 >> condition 1",9341,123829,13
240,"t07_1_2","t07",1,2,"COM(S)","no","PP>OBJ",1,"below","OBJ>PP >> PP>OBJ","condition 2 >> condition 1",7022,594263,66
237,"t07_1_2","t07",1,2,"COM(S)","no","PP>OBJ",1,"below","OBJ>PP >> PP>OBJ","condition 2 >> condition 1",5734,486494,50
258,"t07_1_2","t07",1,2,"COM(S)","no","OBJ>PP",2,"above","OBJ>PP >> PP>OBJ","condition 2 >> condition 1",9371,368810,37
267,"t07_1_2","t07",1,2,"COM(S)","no","OBJ>PP",2,"below","PP>OBJ >> OBJ>PP","condition 1 >> condition 2",8516,734035,56
249,"t07_1_2","t07",1,2,"COM(S)","no","PP>OBJ",1,"above","PP>OBJ >> OBJ>PP","condition 1 >> condition 2",16482,506633,39
243,"t07_1_2","t07",1,2,"COM(S)","no","OBJ>PP",2,"below","PP>OBJ >> OBJ>PP","condition 1 >> condition 2",18327,660109,61
253,"t07_1_2","t07",1,2,"COM(S)","no","PP>OBJ",1,"below","OBJ>PP >> PP>OBJ","condition 2 >> condition 1",12718,206599,17
236,"t07_1_2","t07",1,2,"COM(S)","no","PP>OBJ",1,"above","PP>OBJ >> OBJ>PP","condition 1 >> condition 2",14671,720399,66
269,"t07_1_2","t07",1,2,"COM(S)","no","OBJ>PP",2,"above","OBJ>PP >> PP>OBJ","condition 2 >> condition 1",13858,1101889,58
228,"t07_1_2","t07",1,2,"COM(S)","no","PP>OBJ",1,"above","PP>OBJ >> OBJ>PP","condition 1 >> condition 2",13444,163327,14
256,"t07_1_2","t07",1,2,"COM(S)","no","PP>OBJ",1,"below","OBJ>PP >> PP>OBJ","condition 2 >> condition 1",8928,567362,58
268,"t07_1_2","t07",1,2,"COM(S)","no","OBJ>PP",2,"above","OBJ>PP >> PP>OBJ","condition 2 >> condition 1",7369,151619,11
232,"t07_1_2","t07",1,2,"COM(S)","no","PP>OBJ",1,"above","PP>OBJ >> OBJ>PP","condition 1 >> condition 2",4792,326239,49
224,"t07_1_2","t07",1,2,"COM(S)","no","OBJ>PP",2,"above","OBJ>PP >> PP>OBJ","condition 2 >> condition 1",5803,225329,29
233,"t07_1_2","t07",1,2,"COM(S)","no","PP>OBJ",1,"below","OBJ>PP >> PP>OBJ","condition 2 >> condition 1",6068,274423,36
225,"t07_1_2","t07",1,2,"COM(S)","no","OBJ>PP",2,"below","PP>OBJ >> OBJ>PP","condition 1 >> condition 2",6079,293560,35
271,"t07_1_2","t07",1,2,"COM(S)","no","OBJ>PP",2,"below","PP>OBJ >> OBJ>PP","condition 1 >> condition 2",4773,455311,58
234,"t07_1_2","t07",1,2,"COM(S)","no","OBJ>PP",2,"below","PP>OBJ >> OBJ>PP","condition 1 >> condition 2",6293,278863,22
251,"t07_1_2","t07",1,2,"COM(S)","no","PP>OBJ",1,"below","OBJ>PP >> PP>OBJ","condition 2 >> condition 1",4343,378906,65
241,"t07_1_2","t07",1,2,"COM(S)","no","OBJ>PP",2,"below","PP>OBJ >> OBJ>PP","condition 1 >> condition 2",8354,409898,49
255,"t07_1_2","t07",1,2,"COM(S)","no","OBJ>PP",2,"above","OBJ>PP >> PP>OBJ","condition 2 >> condition 1",7994,794661,60
244,"t07_1_2","t07",1,2,"COM(S)","no","OBJ>PP",2,"above","OBJ>PP >> PP>OBJ","condition 2 >> condition 1",10251,575651,65
245,"t07_1_2","t07",1,2,"COM(S)","no","PP>OBJ",1,"below","OBJ>PP >> PP>OBJ","condition 2 >> condition 1",29907,303958,20
238,"t07_1_2","t07",1,2,"COM(S)","no","OBJ>PP",2,"above","OBJ>PP >> PP>OBJ","condition 2 >> condition 1",5663,449707,60
235,"t07_1_2","t07",1,2,"COM(S)","no","PP>OBJ",1,"below","OBJ>PP >> PP>OBJ","condition 2 >> condition 1",5971,131320,15
222,"t07_1_2","t07",1,2,"COM(S)","no","OBJ>PP",2,"above","OBJ>PP >> PP>OBJ","condition 2 >> condition 1",6263,383784,40
257,"t07_1_2","t07",1,2,"COM(S)","no","PP>OBJ",1,"above","PP>OBJ >> OBJ>PP","condition 1 >> condition 2",7564,313426,28
270,"t07_1_2","t07",1,2,"COM(S)","no","OBJ>PP",2,"below","PP>OBJ >> OBJ>PP","condition 1 >> condition 2",11800,160070,13
263,"t07_1_2","t07",1,2,"COM(S)","no","OBJ>PP",2,"below","PP>OBJ >> OBJ>PP","condition 1 >> condition 2",5568,414040,35
252,"t07_1_2","t07",1,2,"COM(S)","no","PP>OBJ",1,"below","OBJ>PP >> PP>OBJ","condition 2 >> condition 1",13326,485379,40
248,"t07_1_2","t07",1,2,"COM(S)","no","PP>OBJ",1,"above","PP>OBJ >> OBJ>PP","condition 1 >> condition 2",19249,1514925,67
230,"t07_1_2","t07",1,2,"COM(S)","no","OBJ>PP",2,"below","PP>OBJ >> OBJ>PP","condition 1 >> condition 2",5374,504441,60
220,"t07_1_2","t07",1,2,"COM(S)","no","OBJ>PP",2,"above","OBJ>PP >> PP>OBJ","condition 2 >> condition 1",3467,581756,67
221,"t07_1_2","t07",1,2,"COM(S)","no","PP>OBJ",1,"above","PP>OBJ >> OBJ>PP","condition 1 >> condition 2",9574,533439,47
229,"t07_1_2","t07",1,2,"COM(S)","no","PP>OBJ",1,"above","PP>OBJ >> OBJ>PP","condition 1 >> condition 2",6379,482527,63
254,"t07_1_2","t07",1,2,"COM(S)","no","PP>OBJ",1,"below","OBJ>PP >> PP>OBJ","condition 2 >> condition 1",15079,320692,21
227,"t08_1_2","t08",1,2,"COM(S)","no","PP>OBJ",1,"below","OBJ>PP >> PP>OBJ","condition 2 >> condition 1",7606,752564,67
238,"t08_1_2","t08",1,2,"COM(S)","no","PP>OBJ",1,"below","OBJ>PP >> PP>OBJ","condition 2 >> condition 1",11288,190844,23
269,"t08_1_2","t08",1,2,"COM(S)","no","OBJ>PP",2,"above","OBJ>PP >> PP>OBJ","condition 2 >> condition 1",11157,195197,11
253,"t08_1_2","t08",1,2,"COM(S)","no","OBJ>PP",2,"above","OBJ>PP >> PP>OBJ","condition 2 >> condition 1",23709,134789,10
252,"t08_1_2","t08",1,2,"COM(S)","no","OBJ>PP",2,"below","PP>OBJ >> OBJ>PP","condition 1 >> condition 2",11236,606996,52
270,"t08_1_2","t08",1,2,"COM(S)","no","OBJ>PP",2,"below","PP>OBJ >> OBJ>PP","condition 1 >> condition 2",6875,411961,35
241,"t08_1_2","t08",1,2,"COM(S)","no","OBJ>PP",2,"below","PP>OBJ >> OBJ>PP","condition 1 >> condition 2",9905,542041,69
255,"t08_1_2","t08",1,2,"COM(S)","no","PP>OBJ",1,"above","PP>OBJ >> OBJ>PP","condition 1 >> condition 2",13195,460065,31
239,"t08_1_2","t08",1,2,"COM(S)","no","PP>OBJ",1,"below","OBJ>PP >> PP>OBJ","condition 2 >> condition 1",6333,278235,29
243,"t08_1_2","t08",1,2,"COM(S)","no","PP>OBJ",1,"above","PP>OBJ >> OBJ>PP","condition 1 >> condition 2",7797,401300,38
235,"t08_1_2","t08",1,2,"COM(S)","no","OBJ>PP",2,"below","PP>OBJ >> OBJ>PP","condition 1 >> condition 2",4915,219589,30
220,"t08_1_2","t08",1,2,"COM(S)","no","OBJ>PP",2,"above","OBJ>PP >> PP>OBJ","condition 2 >> condition 1",15760,69928,7
230,"t08_1_2","t08",1,2,"COM(S)","no","OBJ>PP",2,"below","PP>OBJ >> OBJ>PP","condition 1 >> condition 2",9381,284758,31
242,"t08_1_2","t08",1,2,"COM(S)","no","OBJ>PP",2,"above","OBJ>PP >> PP>OBJ","condition 2 >> condition 1",10070,603030,63
233,"t08_1_2","t08",1,2,"COM(S)","no","OBJ>PP",2,"above","OBJ>PP >> PP>OBJ","condition 2 >> condition 1",3660,209640,24
232,"t08_1_2","t08",1,2,"COM(S)","no","OBJ>PP",2,"below","PP>OBJ >> OBJ>PP","condition 1 >> condition 2",6881,51363,8
247,"t08_1_2","t08",1,2,"COM(S)","no","OBJ>PP",2,"above","OBJ>PP >> PP>OBJ","condition 2 >> condition 1",8325,208129,21
245,"t08_1_2","t08",1,2,"COM(S)","no","OBJ>PP",2,"below","PP>OBJ >> OBJ>PP","condition 1 >> condition 2",23212,170713,12
244,"t08_1_2","t08",1,2,"COM(S)","no","OBJ>PP",2,"below","PP>OBJ >> OBJ>PP","condition 1 >> condition 2",7938,260817,26
266,"t08_1_2","t08",1,2,"COM(S)","no","PP>OBJ",1,"below","OBJ>PP >> PP>OBJ","condition 2 >> condition 1",6975,718516,68
271,"t08_1_2","t08",1,2,"COM(S)","no","OBJ>PP",2,"below","PP>OBJ >> OBJ>PP","condition 1 >> condition 2",8286,488948,63
225,"t08_1_2","t08",1,2,"COM(S)","no","OBJ>PP",2,"below","PP>OBJ >> OBJ>PP","condition 1 >> condition 2",7523,407849,49
268,"t08_1_2","t08",1,2,"COM(S)","no","OBJ>PP",2,"above","OBJ>PP >> PP>OBJ","condition 2 >> condition 1",12851,603643,56
249,"t08_1_2","t08",1,2,"COM(S)","no","OBJ>PP",2,"above","OBJ>PP >> PP>OBJ","condition 2 >> condition 1",21238,359065,25
229,"t08_1_2","t08",1,2,"COM(S)","no","PP>OBJ",1,"below","OBJ>PP >> PP>OBJ","condition 2 >> condition 1",9912,437344,57
258,"t08_1_2","t08",1,2,"COM(S)","no","OBJ>PP",2,"below","PP>OBJ >> OBJ>PP","condition 1 >> condition 2",9552,508501,52
263,"t08_1_2","t08",1,2,"COM(S)","no","OBJ>PP",2,"below","PP>OBJ >> OBJ>PP","condition 1 >> condition 2",6040,424768,37
223,"t08_1_2","t08",1,2,"COM(S)","no","PP>OBJ",1,"above","PP>OBJ >> OBJ>PP","condition 1 >> condition 2",9388,218766,23
264,"t08_1_2","t08",1,2,"COM(S)","no","PP>OBJ",1,"above","PP>OBJ >> OBJ>PP","condition 1 >> condition 2",5241,1171309,52
221,"t08_1_2","t08",1,2,"COM(S)","no","OBJ>PP",2,"above","OBJ>PP >> PP>OBJ","condition 2 >> condition 1",14081,100067,7
248,"t08_1_2","t08",1,2,"COM(S)","no","OBJ>PP",2,"below","PP>OBJ >> OBJ>PP","condition 1 >> condition 2",8909,279948,13
231,"t08_1_2","t08",1,2,"COM(S)","no","OBJ>PP",2,"below","PP>OBJ >> OBJ>PP","condition 1 >> condition 2",7663,195917,24
267,"t08_1_2","t08",1,2,"COM(S)","no","OBJ>PP",2,"below","PP>OBJ >> OBJ>PP","condition 1 >> condition 2",10072,295876,21
254,"t08_1_2","t08",1,2,"COM(S)","no","PP>OBJ",1,"below","OBJ>PP >> PP>OBJ","condition 2 >> condition 1",8803,879026,64
224,"t08_1_2","t08",1,2,"COM(S)","no","OBJ>PP",2,"above","OBJ>PP >> PP>OBJ","condition 2 >> condition 1",6566,105303,11
234,"t08_1_2","t08",1,2,"COM(S)","no","OBJ>PP",2,"below","PP>OBJ >> OBJ>PP","condition 1 >> condition 2",14515,177956,15
246,"t08_1_2","t08",1,2,"COM(S)","no","OBJ>PP",2,"below","PP>OBJ >> OBJ>PP","condition 1 >> condition 2",6391,467618,50
237,"t08_1_2","t08",1,2,"COM(S)","no","PP>OBJ",1,"below","OBJ>PP >> PP>OBJ","condition 2 >> condition 1",6791,622339,70
256,"t08_1_2","t08",1,2,"COM(S)","no","OBJ>PP",2,"below","PP>OBJ >> OBJ>PP","condition 1 >> condition 2",8578,79842,8
257,"t08_1_2","t08",1,2,"COM(S)","no","PP>OBJ",1,"above","PP>OBJ >> OBJ>PP","condition 1 >> condition 2",7150,485876,49
236,"t08_1_2","t08",1,2,"COM(S)","no","PP>OBJ",1,"below","OBJ>PP >> PP>OBJ","condition 2 >> condition 1",10213,587826,52
222,"t08_1_2","t08",1,2,"COM(S)","no","PP>OBJ",1,"above","PP>OBJ >> OBJ>PP","condition 1 >> condition 2",13683,105286,8
251,"t08_1_2","t08",1,2,"COM(S)","no","OBJ>PP",2,"below","PP>OBJ >> OBJ>PP","condition 1 >> condition 2",4701,387804,67
228,"t08_1_2","t08",1,2,"COM(S)","no","OBJ>PP",2,"below","PP>OBJ >> OBJ>PP","condition 1 >> condition 2",9538,656418,69
240,"t08_1_2","t08",1,2,"COM(S)","no","PP>OBJ",1,"above","PP>OBJ >> OBJ>PP","condition 1 >> condition 2",7566,501479,55
240,"t09_1_2","t09",1,2,"COM(S)","no","PP>OBJ",1,"below","OBJ>PP >> PP>OBJ","condition 2 >> condition 1",7918,341639,36
251,"t09_1_2","t09",1,2,"COM(S)","no","PP>OBJ",1,"above","PP>OBJ >> OBJ>PP","condition 1 >> condition 2",3728,223458,33
254,"t09_1_2","t09",1,2,"COM(S)","no","OBJ>PP",2,"below","PP>OBJ >> OBJ>PP","condition 1 >> condition 2",19229,127578,8
232,"t09_1_2","t09",1,2,"COM(S)","no","OBJ>PP",2,"above","OBJ>PP >> PP>OBJ","condition 2 >> condition 1",4604,128461,20
256,"t09_1_2","t09",1,2,"COM(S)","no","PP>OBJ",1,"above","PP>OBJ >> OBJ>PP","condition 1 >> condition 2",10756,317097,30
227,"t09_1_2","t09",1,2,"COM(S)","no","PP>OBJ",1,"below","OBJ>PP >> PP>OBJ","condition 2 >> condition 1",16925,305999,24
245,"t09_1_2","t09",1,2,"COM(S)","no","PP>OBJ",1,"below","OBJ>PP >> PP>OBJ","condition 2 >> condition 1",15065,481279,33
255,"t09_1_2","t09",1,2,"COM(S)","no","OBJ>PP",2,"below","PP>OBJ >> OBJ>PP","condition 1 >> condition 2",13718,841922,64
235,"t09_1_2","t09",1,2,"COM(S)","no","PP>OBJ",1,"below","OBJ>PP >> PP>OBJ","condition 2 >> condition 1",5098,275800,39
253,"t09_1_2","t09",1,2,"COM(S)","no","PP>OBJ",1,"below","OBJ>PP >> PP>OBJ","condition 2 >> condition 1",6006,356213,34
225,"t09_1_2","t09",1,2,"COM(S)","no","OBJ>PP",2,"below","PP>OBJ >> OBJ>PP","condition 1 >> condition 2",8188,513299,62
233,"t09_1_2","t09",1,2,"COM(S)","no","PP>OBJ",1,"below","OBJ>PP >> PP>OBJ","condition 2 >> condition 1",5539,222655,26
246,"t09_1_2","t09",1,2,"COM(S)","no","PP>OBJ",1,"below","OBJ>PP >> PP>OBJ","condition 2 >> condition 1",11890,370433,37
269,"t09_1_2","t09",1,2,"COM(S)","no","PP>OBJ",1,"below","OBJ>PP >> PP>OBJ","condition 2 >> condition 1",23833,731339,35
236,"t09_1_2","t09",1,2,"COM(S)","no","PP>OBJ",1,"below","OBJ>PP >> PP>OBJ","condition 2 >> condition 1",8033,648088,60
271,"t09_1_2","t09",1,2,"COM(S)","no","OBJ>PP",2,"below","PP>OBJ >> OBJ>PP","condition 1 >> condition 2",5714,531269,70
268,"t09_1_2","t09",1,2,"COM(S)","no","PP>OBJ",1,"below","OBJ>PP >> PP>OBJ","condition 2 >> condition 1",13608,245706,20
237,"t09_1_2","t09",1,2,"COM(S)","no","PP>OBJ",1,"below","OBJ>PP >> PP>OBJ","condition 2 >> condition 1",8215,579853,64
247,"t09_1_2","t09",1,2,"COM(S)","no","PP>OBJ",1,"below","OBJ>PP >> PP>OBJ","condition 2 >> condition 1",14619,55386,6
221,"t09_1_2","t09",1,2,"COM(S)","no","PP>OBJ",1,"below","OBJ>PP >> PP>OBJ","condition 2 >> condition 1",9036,576804,52
231,"t09_1_2","t09",1,2,"COM(S)","no","OBJ>PP",2,"below","PP>OBJ >> OBJ>PP","condition 1 >> condition 2",6375,458480,56
238,"t09_1_2","t09",1,2,"COM(S)","no","OBJ>PP",2,"below","PP>OBJ >> OBJ>PP","condition 1 >> condition 2",6454,210228,26
239,"t09_1_2","t09",1,2,"COM(S)","no","OBJ>PP",2,"below","PP>OBJ >> OBJ>PP","condition 1 >> condition 2",5668,379650,42
252,"t09_1_2","t09",1,2,"COM(S)","no","PP>OBJ",1,"below","OBJ>PP >> PP>OBJ","condition 2 >> condition 1",11954,360674,29
230,"t09_1_2","t09",1,2,"COM(S)","no","OBJ>PP",2,"below","PP>OBJ >> OBJ>PP","condition 1 >> condition 2",8588,133394,13
243,"t09_1_2","t09",1,2,"COM(S)","no","OBJ>PP",2,"above","OBJ>PP >> PP>OBJ","condition 2 >> condition 1",13769,550013,53
234,"t09_1_2","t09",1,2,"COM(S)","no","OBJ>PP",2,"above","OBJ>PP >> PP>OBJ","condition 2 >> condition 1",11488,305317,25
228,"t09_1_2","t09",1,2,"COM(S)","no","PP>OBJ",1,"below","OBJ>PP >> PP>OBJ","condition 2 >> condition 1",8807,517025,52
257,"t09_1_2","t09",1,2,"COM(S)","no","PP>OBJ",1,"above","PP>OBJ >> OBJ>PP","condition 1 >> condition 2",13643,354632,32
229,"t09_1_2","t09",1,2,"COM(S)","no","OBJ>PP",2,"above","OBJ>PP >> PP>OBJ","condition 2 >> condition 1",7108,228109,29
267,"t09_1_2","t09",1,2,"COM(S)","no","OBJ>PP",2,"below","PP>OBJ >> OBJ>PP","condition 1 >> condition 2",12571,767667,60
222,"t09_1_2","t09",1,2,"COM(S)","no","PP>OBJ",1,"above","PP>OBJ >> OBJ>PP","condition 1 >> condition 2",7912,582831,65
266,"t09_1_2","t09",1,2,"COM(S)","no","OBJ>PP",2,"below","PP>OBJ >> OBJ>PP","condition 1 >> condition 2",6652,491477,42
244,"t09_1_2","t09",1,2,"COM(S)","no","OBJ>PP",2,"above","OBJ>PP >> PP>OBJ","condition 2 >> condition 1",23581,102040,9
241,"t09_1_2","t09",1,2,"COM(S)","no","PP>OBJ",1,"below","OBJ>PP >> PP>OBJ","condition 2 >> condition 1",13642,225269,23
220,"t09_1_2","t09",1,2,"COM(S)","no","OBJ>PP",2,"below","PP>OBJ >> OBJ>PP","condition 1 >> condition 2",6983,616319,70
223,"t09_1_2","t09",1,2,"COM(S)","no","PP>OBJ",1,"above","PP>OBJ >> OBJ>PP","condition 1 >> condition 2",11048,118401,11
249,"t09_1_2","t09",1,2,"COM(S)","no","PP>OBJ",1,"above","PP>OBJ >> OBJ>PP","condition 1 >> condition 2",23863,251577,17
224,"t09_1_2","t09",1,2,"COM(S)","no","OBJ>PP",2,"above","OBJ>PP >> PP>OBJ","condition 2 >> condition 1",10440,157550,19
263,"t09_1_2","t09",1,2,"COM(S)","no","PP>OBJ",1,"above","PP>OBJ >> OBJ>PP","condition 1 >> condition 2",6269,508981,52
270,"t09_1_2","t09",1,2,"COM(S)","no","OBJ>PP",2,"below","PP>OBJ >> OBJ>PP","condition 1 >> condition 2",13269,99843,8
264,"t09_1_2","t09",1,2,"COM(S)","no","OBJ>PP",2,"below","PP>OBJ >> OBJ>PP","condition 1 >> condition 2",7874,348577,19
242,"t09_1_2","t09",1,2,"COM(S)","no","PP>OBJ",1,"above","PP>OBJ >> OBJ>PP","condition 1 >> condition 2",9699,372328,33
248,"t09_1_2","t09",1,2,"COM(S)","no","OBJ>PP",2,"above","OBJ>PP >> PP>OBJ","condition 2 >> condition 1",7498,446501,28
258,"t09_1_2","t09",1,2,"COM(S)","no","OBJ>PP",2,"above","OBJ>PP >> PP>OBJ","condition 2 >> condition 1",9070,663433,69
235,"t10_1_2","t10",1,2,"COM(S)","no","PP>OBJ",1,"below","OBJ>PP >> PP>OBJ","condition 2 >> condition 1",4193,305204,45
248,"t10_1_2","t10",1,2,"COM(S)","no","PP>OBJ",1,"below","OBJ>PP >> PP>OBJ","condition 2 >> condition 1",11078,207757,8
252,"t10_1_2","t10",1,2,"COM(S)","no","OBJ>PP",2,"below","PP>OBJ >> OBJ>PP","condition 1 >> condition 2",12319,207227,17
233,"t10_1_2","t10",1,2,"COM(S)","no","OBJ>PP",2,"below","PP>OBJ >> OBJ>PP","condition 1 >> condition 2",6238,384616,52
255,"t10_1_2","t10",1,2,"COM(S)","no","OBJ>PP",2,"above","OBJ>PP >> PP>OBJ","condition 2 >> condition 1",6055,591181,43
228,"t10_1_2","t10",1,2,"COM(S)","no","PP>OBJ",1,"above","PP>OBJ >> OBJ>PP","condition 1 >> condition 2",11046,211118,19
222,"t10_1_2","t10",1,2,"COM(S)","no","PP>OBJ",1,"above","PP>OBJ >> OBJ>PP","condition 1 >> condition 2",11233,265684,26
225,"t10_1_2","t10",1,2,"COM(S)","no","OBJ>PP",2,"above","OBJ>PP >> PP>OBJ","condition 2 >> condition 1",10411,281379,33
224,"t10_1_2","t10",1,2,"COM(S)","no","OBJ>PP",2,"above","OBJ>PP >> PP>OBJ","condition 2 >> condition 1",14010,62068,6
257,"t10_1_2","t10",1,2,"COM(S)","no","PP>OBJ",1,"above","PP>OBJ >> OBJ>PP","condition 1 >> condition 2",9834,471443,47
240,"t10_1_2","t10",1,2,"COM(S)","no","PP>OBJ",1,"below","OBJ>PP >> PP>OBJ","condition 2 >> condition 1",8295,302191,31
242,"t10_1_2","t10",1,2,"COM(S)","no","PP>OBJ",1,"below","OBJ>PP >> PP>OBJ","condition 2 >> condition 1",4557,397007,36
245,"t10_1_2","t10",1,2,"COM(S)","no","OBJ>PP",2,"above","OBJ>PP >> PP>OBJ","condition 2 >> condition 1",11773,882243,65
230,"t10_1_2","t10",1,2,"COM(S)","no","PP>OBJ",1,"below","OBJ>PP >> PP>OBJ","condition 2 >> condition 1",7033,299773,33
270,"t10_1_2","t10",1,2,"COM(S)","no","OBJ>PP",2,"above","OBJ>PP >> PP>OBJ","condition 2 >> condition 1",9366,629164,53
221,"t10_1_2","t10",1,2,"COM(S)","no","PP>OBJ",1,"below","OBJ>PP >> PP>OBJ","condition 2 >> condition 1",17576,392208,31
236,"t10_1_2","t10",1,2,"COM(S)","no","OBJ>PP",2,"above","OBJ>PP >> PP>OBJ","condition 2 >> condition 1",11517,687071,63
239,"t10_1_2","t10",1,2,"COM(S)","no","PP>OBJ",1,"below","OBJ>PP >> PP>OBJ","condition 2 >> condition 1",17110,474926,56
238,"t10_1_2","t10",1,2,"COM(S)","no","OBJ>PP",2,"below","PP>OBJ >> OBJ>PP","condition 1 >> condition 2",8263,81796,9
220,"t10_1_2","t10",1,2,"COM(S)","no","PP>OBJ",1,"below","OBJ>PP >> PP>OBJ","condition 2 >> condition 1",6863,520355,59
251,"t10_1_2","t10",1,2,"COM(S)","no","PP>OBJ",1,"above","PP>OBJ >> OBJ>PP","condition 1 >> condition 2",3844,301419,46
234,"t10_1_2","t10",1,2,"COM(S)","no","OBJ>PP",2,"above","OBJ>PP >> PP>OBJ","condition 2 >> condition 1",13016,469380,40
271,"t10_1_2","t10",1,2,"COM(S)","no","OBJ>PP",2,"below","PP>OBJ >> OBJ>PP","condition 1 >> condition 2",7961,164671,19
241,"t10_1_2","t10",1,2,"COM(S)","no","OBJ>PP",2,"above","OBJ>PP >> PP>OBJ","condition 2 >> condition 1",6799,259155,28
264,"t10_1_2","t10",1,2,"COM(S)","no","OBJ>PP",2,"above","OBJ>PP >> PP>OBJ","condition 2 >> condition 1",14053,160520,13
258,"t10_1_2","t10",1,2,"COM(S)","no","OBJ>PP",2,"above","OBJ>PP >> PP>OBJ","condition 2 >> condition 1",11368,196679,22
266,"t10_1_2","t10",1,2,"COM(S)","no","OBJ>PP",2,"below","PP>OBJ >> OBJ>PP","condition 1 >> condition 2",10343,548364,49
249,"t10_1_2","t10",1,2,"COM(S)","no","OBJ>PP",2,"below","PP>OBJ >> OBJ>PP","condition 1 >> condition 2",12165,396960,29
232,"t10_1_2","t10",1,2,"COM(S)","no","PP>OBJ",1,"below","OBJ>PP >> PP>OBJ","condition 2 >> condition 1",6983,38941,6
253,"t10_1_2","t10",1,2,"COM(S)","no","PP>OBJ",1,"above","PP>OBJ >> OBJ>PP","condition 1 >> condition 2",11807,241005,21
254,"t10_1_2","t10",1,2,"COM(S)","no","PP>OBJ",1,"above","PP>OBJ >> OBJ>PP","condition 1 >> condition 2",14568,224618,13
246,"t10_1_2","t10",1,2,"COM(S)","no","PP>OBJ",1,"above","PP>OBJ >> OBJ>PP","condition 1 >> condition 2",8238,394790,40
263,"t10_1_2","t10",1,2,"COM(S)","no","OBJ>PP",2,"below","PP>OBJ >> OBJ>PP","condition 1 >> condition 2",4725,352814,23
243,"t10_1_2","t10",1,2,"COM(S)","no","OBJ>PP",2,"below","PP>OBJ >> OBJ>PP","condition 1 >> condition 2",10305,710343,67
229,"t10_1_2","t10",1,2,"COM(S)","no","OBJ>PP",2,"above","OBJ>PP >> PP>OBJ","condition 2 >> condition 1",16919,86458,10
267,"t10_1_2","t10",1,2,"COM(S)","no","OBJ>PP",2,"below","PP>OBJ >> OBJ>PP","condition 1 >> condition 2",11371,457695,36
268,"t10_1_2","t10",1,2,"COM(S)","no","OBJ>PP",2,"below","PP>OBJ >> OBJ>PP","condition 1 >> condition 2",9527,714809,70
256,"t10_1_2","t10",1,2,"COM(S)","no","OBJ>PP",2,"above","OBJ>PP >> PP>OBJ","condition 2 >> condition 1",8937,476669,46
231,"t10_1_2","t10",1,2,"COM(S)","no","PP>OBJ",1,"below","OBJ>PP >> PP>OBJ","condition 2 >> condition 1",7157,125770,15
237,"t10_1_2","t10",1,2,"COM(S)","no","PP>OBJ",1,"above","PP>OBJ >> OBJ>PP","condition 1 >> condition 2",11234,236676,25
227,"t10_1_2","t10",1,2,"COM(S)","no","PP>OBJ",1,"below","OBJ>PP >> PP>OBJ","condition 2 >> condition 1",6436,764263,69
247,"t10_1_2","t10",1,2,"COM(S)","no","OBJ>PP",2,"below","PP>OBJ >> OBJ>PP","condition 1 >> condition 2",8862,546336,64
223,"t10_1_2","t10",1,2,"COM(S)","no","PP>OBJ",1,"below","OBJ>PP >> PP>OBJ","condition 2 >> condition 1",4981,481165,50
269,"t10_1_2","t10",1,2,"COM(S)","no","OBJ>PP",2,"above","OBJ>PP >> PP>OBJ","condition 2 >> condition 1",52575,470091,21
244,"t10_1_2","t10",1,2,"COM(S)","no","OBJ>PP",2,"above","OBJ>PP >> PP>OBJ","condition 2 >> condition 1",7286,149419,14
255,"t11_1_2","t11",1,2,"COM(S)","no","OBJ>PP",2,"below","PP>OBJ >> OBJ>PP","condition 1 >> condition 2",8741,901471,70
252,"t11_1_2","t11",1,2,"COM(S)","no","PP>OBJ",1,"below","OBJ>PP >> PP>OBJ","condition 2 >> condition 1",15436,731570,62
257,"t11_1_2","t11",1,2,"COM(S)","no","PP>OBJ",1,"below","OBJ>PP >> PP>OBJ","condition 2 >> condition 1",9845,505165,51
241,"t11_1_2","t11",1,2,"COM(S)","no","OBJ>PP",2,"below","PP>OBJ >> OBJ>PP","condition 1 >> condition 2",6265,504657,64
263,"t11_1_2","t11",1,2,"COM(S)","no","OBJ>PP",2,"below","PP>OBJ >> OBJ>PP","condition 1 >> condition 2",7375,436490,39
249,"t11_1_2","t11",1,2,"COM(S)","no","PP>OBJ",1,"below","OBJ>PP >> PP>OBJ","condition 2 >> condition 1",10622,435658,33
229,"t11_1_2","t11",1,2,"COM(S)","no","OBJ>PP",2,"below","PP>OBJ >> OBJ>PP","condition 1 >> condition 2",7356,370826,48
247,"t11_1_2","t11",1,2,"COM(S)","no","PP>OBJ",1,"below","OBJ>PP >> PP>OBJ","condition 2 >> condition 1",9550,510566,60
237,"t11_1_2","t11",1,2,"COM(S)","no","OBJ>PP",2,"below","PP>OBJ >> OBJ>PP","condition 1 >> condition 2",10802,378364,37
264,"t11_1_2","t11",1,2,"COM(S)","no","OBJ>PP",2,"below","PP>OBJ >> OBJ>PP","condition 1 >> condition 2",18824,1291654,64
221,"t11_1_2","t11",1,2,"COM(S)","no","PP>OBJ",1,"below","OBJ>PP >> PP>OBJ","condition 2 >> condition 1",9435,729572,67
271,"t11_1_2","t11",1,2,"COM(S)","no","OBJ>PP",2,"below","PP>OBJ >> OBJ>PP","condition 1 >> condition 2",8034,136459,16
246,"t11_1_2","t11",1,2,"COM(S)","no","OBJ>PP",2,"above","OBJ>PP >> PP>OBJ","condition 2 >> condition 1",9920,108346,11
251,"t11_1_2","t11",1,2,"COM(S)","no","PP>OBJ",1,"below","OBJ>PP >> PP>OBJ","condition 2 >> condition 1",6056,209528,30
253,"t11_1_2","t11",1,2,"COM(S)","no","PP>OBJ",1,"below","OBJ>PP >> PP>OBJ","condition 2 >> condition 1",9495,376910,36
266,"t11_1_2","t11",1,2,"COM(S)","no","OBJ>PP",2,"below","PP>OBJ >> OBJ>PP","condition 1 >> condition 2",13208,77898,6
231,"t11_1_2","t11",1,2,"COM(S)","no","PP>OBJ",1,"below","OBJ>PP >> PP>OBJ","condition 2 >> condition 1",5218,490982,62
232,"t11_1_2","t11",1,2,"COM(S)","no","OBJ>PP",2,"above","OBJ>PP >> PP>OBJ","condition 2 >> condition 1",4250,368047,57
223,"t11_1_2","t11",1,2,"COM(S)","no","PP>OBJ",1,"below","OBJ>PP >> PP>OBJ","condition 2 >> condition 1",7530,194453,21
268,"t11_1_2","t11",1,2,"COM(S)","no","OBJ>PP",2,"below","PP>OBJ >> OBJ>PP","condition 1 >> condition 2",5883,437803,37
235,"t11_1_2","t11",1,2,"COM(S)","no","OBJ>PP",2,"below","PP>OBJ >> OBJ>PP","condition 1 >> condition 2",4438,335250,51
233,"t11_1_2","t11",1,2,"COM(S)","no","PP>OBJ",1,"above","PP>OBJ >> OBJ>PP","condition 1 >> condition 2",5692,469191,67
240,"t11_1_2","t11",1,2,"COM(S)","no","PP>OBJ",1,"above","PP>OBJ >> OBJ>PP","condition 1 >> condition 2",7974,279559,27
244,"t11_1_2","t11",1,2,"COM(S)","no","OBJ>PP",2,"below","PP>OBJ >> OBJ>PP","condition 1 >> condition 2",9639,459688,50
227,"t11_1_2","t11",1,2,"COM(S)","no","PP>OBJ",1,"below","OBJ>PP >> PP>OBJ","condition 2 >> condition 1",7755,599068,48
254,"t11_1_2","t11",1,2,"COM(S)","no","OBJ>PP",2,"below","PP>OBJ >> OBJ>PP","condition 1 >> condition 2",29464,369316,24
230,"t11_1_2","t11",1,2,"COM(S)","no","PP>OBJ",1,"below","OBJ>PP >> PP>OBJ","condition 2 >> condition 1",6326,147388,15
256,"t11_1_2","t11",1,2,"COM(S)","no","PP>OBJ",1,"below","OBJ>PP >> PP>OBJ","condition 2 >> condition 1",6438,652870,68
242,"t11_1_2","t11",1,2,"COM(S)","no","PP>OBJ",1,"above","PP>OBJ >> OBJ>PP","condition 1 >> condition 2",6553,656307,70
224,"t11_1_2","t11",1,2,"COM(S)","no","OBJ>PP",2,"above","OBJ>PP >> PP>OBJ","condition 2 >> condition 1",6396,264552,36
243,"t11_1_2","t11",1,2,"COM(S)","no","OBJ>PP",2,"above","OBJ>PP >> PP>OBJ","condition 2 >> condition 1",15711,333889,30
238,"t11_1_2","t11",1,2,"COM(S)","no","PP>OBJ",1,"above","PP>OBJ >> OBJ>PP","condition 1 >> condition 2",16391,288820,35
228,"t11_1_2","t11",1,2,"COM(S)","no","OBJ>PP",2,"above","OBJ>PP >> PP>OBJ","condition 2 >> condition 1",9658,610958,63
225,"t11_1_2","t11",1,2,"COM(S)","no","OBJ>PP",2,"below","PP>OBJ >> OBJ>PP","condition 1 >> condition 2",15589,395799,47
239,"t11_1_2","t11",1,2,"COM(S)","no","PP>OBJ",1,"below","OBJ>PP >> PP>OBJ","condition 2 >> condition 1",4565,508982,62
269,"t11_1_2","t11",1,2,"COM(S)","no","OBJ>PP",2,"below","PP>OBJ >> OBJ>PP","condition 1 >> condition 2",69562,137007,6
270,"t11_1_2","t11",1,2,"COM(S)","no","OBJ>PP",2,"above","OBJ>PP >> PP>OBJ","condition 2 >> condition 1",9417,592679,49
222,"t11_1_2","t11",1,2,"COM(S)","no","PP>OBJ",1,"above","PP>OBJ >> OBJ>PP","condition 1 >> condition 2",7554,170957,15
234,"t11_1_2","t11",1,2,"COM(S)","no","PP>OBJ",1,"above","PP>OBJ >> OBJ>PP","condition 1 >> condition 2",12088,643771,56
236,"t11_1_2","t11",1,2,"COM(S)","no","OBJ>PP",2,"below","PP>OBJ >> OBJ>PP","condition 1 >> condition 2",13375,302987,24
245,"t11_1_2","t11",1,2,"COM(S)","no","OBJ>PP",2,"above","OBJ>PP >> PP>OBJ","condition 2 >> condition 1",20954,833316,61
258,"t11_1_2","t11",1,2,"COM(S)","no","OBJ>PP",2,"below","PP>OBJ >> OBJ>PP","condition 1 >> condition 2",7343,129392,15
267,"t11_1_2","t11",1,2,"COM(S)","no","OBJ>PP",2,"above","OBJ>PP >> PP>OBJ","condition 2 >> condition 1",22191,184752,11
248,"t11_1_2","t11",1,2,"COM(S)","no","OBJ>PP",2,"below","PP>OBJ >> OBJ>PP","condition 1 >> condition 2",8537,377315,23
220,"t11_1_2","t11",1,2,"COM(S)","no","OBJ>PP",2,"below","PP>OBJ >> OBJ>PP","condition 1 >> condition 2",4819,468848,52
252,"t12_1_2","t12",1,2,"COM(S)","no","OBJ>PP",2,"above","OBJ>PP >> PP>OBJ","condition 2 >> condition 1",14938,155333,13
255,"t12_1_2","t12",1,2,"COM(S)","no","OBJ>PP",2,"below","PP>OBJ >> OBJ>PP","condition 1 >> condition 2",12131,518245,36
247,"t12_1_2","t12",1,2,"COM(S)","no","OBJ>PP",2,"below","PP>OBJ >> OBJ>PP","condition 1 >> condition 2",5439,458536,54
220,"t12_1_2","t12",1,2,"COM(S)","no","PP>OBJ",1,"above","PP>OBJ >> OBJ>PP","condition 1 >> condition 2",5003,251604,29
258,"t12_1_2","t12",1,2,"COM(S)","no","PP>OBJ",1,"below","OBJ>PP >> PP>OBJ","condition 2 >> condition 1",9445,575745,59
231,"t12_1_2","t12",1,2,"COM(S)","no","PP>OBJ",1,"below","OBJ>PP >> PP>OBJ","condition 2 >> condition 1",8038,476972,59
233,"t12_1_2","t12",1,2,"COM(S)","no","PP>OBJ",1,"above","PP>OBJ >> OBJ>PP","condition 1 >> condition 2",4365,408927,56
240,"t12_1_2","t12",1,2,"COM(S)","no","PP>OBJ",1,"below","OBJ>PP >> PP>OBJ","condition 2 >> condition 1",6679,253407,25
266,"t12_1_2","t12",1,2,"COM(S)","no","OBJ>PP",2,"below","PP>OBJ >> OBJ>PP","condition 1 >> condition 2",8726,373493,30
267,"t12_1_2","t12",1,2,"COM(S)","no","PP>OBJ",1,"above","PP>OBJ >> OBJ>PP","condition 1 >> condition 2",9613,585716,44
271,"t12_1_2","t12",1,2,"COM(S)","no","OBJ>PP",2,"below","PP>OBJ >> OBJ>PP","condition 1 >> condition 2",7906,423334,53
264,"t12_1_2","t12",1,2,"COM(S)","no","OBJ>PP",2,"below","PP>OBJ >> OBJ>PP","condition 1 >> condition 2",261346,760104,32
225,"t12_1_2","t12",1,2,"COM(S)","no","PP>OBJ",1,"below","OBJ>PP >> PP>OBJ","condition 2 >> condition 1",7618,201258,25
257,"t12_1_2","t12",1,2,"COM(S)","no","PP>OBJ",1,"above","PP>OBJ >> OBJ>PP","condition 1 >> condition 2",14191,96413,8
235,"t12_1_2","t12",1,2,"COM(S)","no","PP>OBJ",1,"below","OBJ>PP >> PP>OBJ","condition 2 >> condition 1",6902,89847,9
249,"t12_1_2","t12",1,2,"COM(S)","no","OBJ>PP",2,"above","OBJ>PP >> PP>OBJ","condition 2 >> condition 1",8847,799097,69
268,"t12_1_2","t12",1,2,"COM(S)","no","OBJ>PP",2,"above","OBJ>PP >> PP>OBJ","condition 2 >> condition 1",17848,427218,35
241,"t12_1_2","t12",1,2,"COM(S)","no","OBJ>PP",2,"below","PP>OBJ >> OBJ>PP","condition 1 >> condition 2",6828,194091,20
236,"t12_1_2","t12",1,2,"COM(S)","no","PP>OBJ",1,"above","PP>OBJ >> OBJ>PP","condition 1 >> condition 2",20078,281182,22
253,"t12_1_2","t12",1,2,"COM(S)","no","PP>OBJ",1,"below","OBJ>PP >> PP>OBJ","condition 2 >> condition 1",7598,538388,53
223,"t12_1_2","t12",1,2,"COM(S)","no","PP>OBJ",1,"above","PP>OBJ >> OBJ>PP","condition 1 >> condition 2",11616,79177,7
245,"t12_1_2","t12",1,2,"COM(S)","no","OBJ>PP",2,"above","OBJ>PP >> PP>OBJ","condition 2 >> condition 1",14383,264804,18
239,"t12_1_2","t12",1,2,"COM(S)","no","OBJ>PP",2,"above","OBJ>PP >> PP>OBJ","condition 2 >> condition 1",8978,255951,26
229,"t12_1_2","t12",1,2,"COM(S)","no","PP>OBJ",1,"below","OBJ>PP >> PP>OBJ","condition 2 >> condition 1",9003,536674,70
222,"t12_1_2","t12",1,2,"COM(S)","no","OBJ>PP",2,"above","OBJ>PP >> PP>OBJ","condition 2 >> condition 1",10630,200366,19
228,"t12_1_2","t12",1,2,"COM(S)","no","OBJ>PP",2,"below","PP>OBJ >> OBJ>PP","condition 1 >> condition 2",9555,552014,56
256,"t12_1_2","t12",1,2,"COM(S)","no","PP>OBJ",1,"above","PP>OBJ >> OBJ>PP","condition 1 >> condition 2",7114,382891,38
243,"t12_1_2","t12",1,2,"COM(S)","no","OBJ>PP",2,"above","OBJ>PP >> PP>OBJ","condition 2 >> condition 1",13510,270533,25
224,"t12_1_2","t12",1,2,"COM(S)","no","OBJ>PP",2,"above","OBJ>PP >> PP>OBJ","condition 2 >> condition 1",6268,328722,44
232,"t12_1_2","t12",1,2,"COM(S)","no","OBJ>PP",2,"above","OBJ>PP >> PP>OBJ","condition 2 >> condition 1",4397,283404,42
234,"t12_1_2","t12",1,2,"COM(S)","no","OBJ>PP",2,"above","OBJ>PP >> PP>OBJ","condition 2 >> condition 1",20541,378901,31
227,"t12_1_2","t12",1,2,"COM(S)","no","PP>OBJ",1,"above","PP>OBJ >> OBJ>PP","condition 1 >> condition 2",10826,519502,40
251,"t12_1_2","t12",1,2,"COM(S)","no","PP>OBJ",1,"above","PP>OBJ >> OBJ>PP","condition 1 >> condition 2",14724,58880,6
248,"t12_1_2","t12",1,2,"COM(S)","no","OBJ>PP",2,"above","OBJ>PP >> PP>OBJ","condition 2 >> condition 1",7413,1465758,61
269,"t12_1_2","t12",1,2,"COM(S)","no","OBJ>PP",2,"below","PP>OBJ >> OBJ>PP","condition 1 >> condition 2",16283,239135,14
237,"t12_1_2","t12",1,2,"COM(S)","no","PP>OBJ",1,"below","OBJ>PP >> PP>OBJ","condition 2 >> condition 1",8313,429291,44
238,"t12_1_2","t12",1,2,"COM(S)","no","OBJ>PP",2,"above","OBJ>PP >> PP>OBJ","condition 2 >> condition 1",8319,486715,64
244,"t12_1_2","t12",1,2,"COM(S)","no","OBJ>PP",2,"below","PP>OBJ >> OBJ>PP","condition 1 >> condition 2",7960,222177,22
242,"t12_1_2","t12",1,2,"COM(S)","no","PP>OBJ",1,"above","PP>OBJ >> OBJ>PP","condition 1 >> condition 2",12564,157197,12
254,"t12_1_2","t12",1,2,"COM(S)","no","PP>OBJ",1,"above","PP>OBJ >> OBJ>PP","condition 1 >> condition 2",14782,500960,34
246,"t12_1_2","t12",1,2,"COM(S)","no","PP>OBJ",1,"below","OBJ>PP >> PP>OBJ","condition 2 >> condition 1",10449,82150,8
270,"t12_1_2","t12",1,2,"COM(S)","no","PP>OBJ",1,"below","OBJ>PP >> PP>OBJ","condition 2 >> condition 1",13318,120022,10
221,"t12_1_2","t12",1,2,"COM(S)","no","PP>OBJ",1,"above","PP>OBJ >> OBJ>PP","condition 1 >> condition 2",9976,492685,42
263,"t12_1_2","t12",1,2,"COM(S)","no","OBJ>PP",2,"below","PP>OBJ >> OBJ>PP","condition 1 >> condition 2",11489,372198,26
230,"t12_1_2","t12",1,2,"COM(S)","no","PP>OBJ",1,"below","OBJ>PP >> PP>OBJ","condition 2 >> condition 1",7000,519903,62
271,"t13_1_2","t13",1,2,"INSTR","yes","OBJ>PP",2,"above","OBJ>PP >> PP>OBJ","condition 2 >> condition 1",6281,220575,26
248,"t13_1_2","t13",1,2,"INSTR","yes","OBJ>PP",2,"above","OBJ>PP >> PP>OBJ","condition 2 >> condition 1",27198,867232,46
243,"t13_1_2","t13",1,2,"INSTR","yes","OBJ>PP",2,"below","PP>OBJ >> OBJ>PP","condition 1 >> condition 2",11825,76341,7
246,"t13_1_2","t13",1,2,"INSTR","yes","OBJ>PP",2,"above","OBJ>PP >> PP>OBJ","condition 2 >> condition 1",14180,323847,32
222,"t13_1_2","t13",1,2,"INSTR","yes","PP>OBJ",1,"above","PP>OBJ >> OBJ>PP","condition 1 >> condition 2",12819,540483,59
255,"t13_1_2","t13",1,2,"INSTR","yes","OBJ>PP",2,"below","PP>OBJ >> OBJ>PP","condition 1 >> condition 2",10619,544914,38
252,"t13_1_2","t13",1,2,"INSTR","yes","OBJ>PP",2,"below","PP>OBJ >> OBJ>PP","condition 1 >> condition 2",27840,649213,55
237,"t13_1_2","t13",1,2,"INSTR","yes","OBJ>PP",2,"above","OBJ>PP >> PP>OBJ","condition 2 >> condition 1",13795,211313,23
257,"t13_1_2","t13",1,2,"INSTR","yes","OBJ>PP",2,"below","PP>OBJ >> OBJ>PP","condition 1 >> condition 2",9158,127895,11
233,"t13_1_2","t13",1,2,"INSTR","yes","OBJ>PP",2,"above","OBJ>PP >> PP>OBJ","condition 2 >> condition 1",6364,78448,9
225,"t13_1_2","t13",1,2,"INSTR","yes","OBJ>PP",2,"below","PP>OBJ >> OBJ>PP","condition 1 >> condition 2",6457,265561,31
268,"t13_1_2","t13",1,2,"INSTR","yes","OBJ>PP",2,"above","OBJ>PP >> PP>OBJ","condition 2 >> condition 1",9254,214516,17
244,"t13_1_2","t13",1,2,"INSTR","yes","OBJ>PP",2,"above","OBJ>PP >> PP>OBJ","condition 2 >> condition 1",14552,59367,6
228,"t13_1_2","t13",1,2,"INSTR","yes","PP>OBJ",1,"above","PP>OBJ >> OBJ>PP","condition 1 >> condition 2",10639,461046,46
236,"t13_1_2","t13",1,2,"INSTR","yes","OBJ>PP",2,"below","PP>OBJ >> OBJ>PP","condition 1 >> condition 2",10842,371459,30
239,"t13_1_2","t13",1,2,"INSTR","yes","OBJ>PP",2,"above","OBJ>PP >> PP>OBJ","condition 2 >> condition 1",5200,433203,51
269,"t13_1_2","t13",1,2,"INSTR","yes","OBJ>PP",2,"above","OBJ>PP >> PP>OBJ","condition 2 >> condition 1",19023,813711,40
238,"t13_1_2","t13",1,2,"INSTR","yes","PP>OBJ",1,"above","PP>OBJ >> OBJ>PP","condition 1 >> condition 2",7823,409468,53
270,"t13_1_2","t13",1,2,"INSTR","yes","OBJ>PP",2,"above","OBJ>PP >> PP>OBJ","condition 2 >> condition 1",8794,665810,56
241,"t13_1_2","t13",1,2,"INSTR","yes","OBJ>PP",2,"below","PP>OBJ >> OBJ>PP","condition 1 >> condition 2",5984,302678,34
227,"t13_1_2","t13",1,2,"INSTR","yes","OBJ>PP",2,"below","PP>OBJ >> OBJ>PP","condition 1 >> condition 2",10562,702721,60
263,"t13_1_2","t13",1,2,"INSTR","yes","OBJ>PP",2,"above","OBJ>PP >> PP>OBJ","condition 2 >> condition 1",6675,332032,19
254,"t13_1_2","t13",1,2,"INSTR","yes","OBJ>PP",2,"above","OBJ>PP >> PP>OBJ","condition 2 >> condition 1",13588,902132,66
253,"t13_1_2","t13",1,2,"INSTR","yes","OBJ>PP",2,"above","OBJ>PP >> PP>OBJ","condition 2 >> condition 1",10542,421942,41
242,"t13_1_2","t13",1,2,"INSTR","yes","PP>OBJ",1,"below","OBJ>PP >> PP>OBJ","condition 2 >> condition 1",7516,291640,25
234,"t13_1_2","t13",1,2,"INSTR","yes","OBJ>PP",2,"above","OBJ>PP >> PP>OBJ","condition 2 >> condition 1",11211,399933,33
223,"t13_1_2","t13",1,2,"INSTR","yes","OBJ>PP",2,"above","OBJ>PP >> PP>OBJ","condition 2 >> condition 1",7458,469286,48
235,"t13_1_2","t13",1,2,"INSTR","yes","PP>OBJ",1,"above","PP>OBJ >> OBJ>PP","condition 1 >> condition 2",8018,111249,12
264,"t13_1_2","t13",1,2,"INSTR","yes","PP>OBJ",1,"below","OBJ>PP >> PP>OBJ","condition 2 >> condition 1",8047,1267419,62
258,"t13_1_2","t13",1,2,"INSTR","yes","OBJ>PP",2,"above","OBJ>PP >> PP>OBJ","condition 2 >> condition 1",7290,426321,42
230,"t13_1_2","t13",1,2,"INSTR","yes","OBJ>PP",2,"below","PP>OBJ >> OBJ>PP","condition 1 >> condition 2",4850,539566,65
221,"t13_1_2","t13",1,2,"INSTR","yes","OBJ>PP",2,"above","OBJ>PP >> PP>OBJ","condition 2 >> condition 1",15720,192250,13
224,"t13_1_2","t13",1,2,"INSTR","yes","OBJ>PP",2,"below","PP>OBJ >> OBJ>PP","condition 1 >> condition 2",6895,183876,23
249,"t13_1_2","t13",1,2,"INSTR","yes","OBJ>PP",2,"above","OBJ>PP >> PP>OBJ","condition 2 >> condition 1",10415,414682,31
247,"t13_1_2","t13",1,2,"INSTR","yes","OBJ>PP",2,"above","OBJ>PP >> PP>OBJ","condition 2 >> condition 1",7829,386473,44
245,"t13_1_2","t13",1,2,"INSTR","yes","PP>OBJ",1,"below","OBJ>PP >> PP>OBJ","condition 2 >> condition 1",22583,730753,52
267,"t13_1_2","t13",1,2,"INSTR","yes","OBJ>PP",2,"below","PP>OBJ >> OBJ>PP","condition 1 >> condition 2",8396,355307,27
240,"t13_1_2","t13",1,2,"INSTR","yes","OBJ>PP",2,"above","OBJ>PP >> PP>OBJ","condition 2 >> condition 1",14134,207471,19
232,"t13_1_2","t13",1,2,"INSTR","yes","OBJ>PP",2,"above","OBJ>PP >> PP>OBJ","condition 2 >> condition 1",4385,99609,13
266,"t13_1_2","t13",1,2,"INSTR","yes","PP>OBJ",1,"above","PP>OBJ >> OBJ>PP","condition 1 >> condition 2",10534,225306,17
220,"t13_1_2","t13",1,2,"INSTR","yes","PP>OBJ",1,"above","PP>OBJ >> OBJ>PP","condition 1 >> condition 2",8972,489422,55
229,"t13_1_2","t13",1,2,"INSTR","yes","OBJ>PP",2,"above","OBJ>PP >> PP>OBJ","condition 2 >> condition 1",3907,175091,22
251,"t13_1_2","t13",1,2,"INSTR","yes","OBJ>PP",2,"above","OBJ>PP >> PP>OBJ","condition 2 >> condition 1",6342,99108,11
231,"t13_1_2","t13",1,2,"INSTR","yes","PP>OBJ",1,"below","OBJ>PP >> PP>OBJ","condition 2 >> condition 1",12371,113104,13
256,"t13_1_2","t13",1,2,"INSTR","yes","OBJ>PP",2,"below","PP>OBJ >> OBJ>PP","condition 1 >> condition 2",5943,524876,52
231,"t14_1_2","t14",1,2,"INSTR","yes","PP>OBJ",1,"below","OBJ>PP >> PP>OBJ","condition 2 >> condition 1",8690,242150,29
256,"t14_1_2","t14",1,2,"INSTR","yes","OBJ>PP",2,"below","PP>OBJ >> OBJ>PP","condition 1 >> condition 2",6817,669073,70
271,"t14_1_2","t14",1,2,"INSTR","yes","OBJ>PP",2,"below","PP>OBJ >> OBJ>PP","condition 1 >> condition 2",5947,236682,29
269,"t14_1_2","t14",1,2,"INSTR","yes","OBJ>PP",2,"below","PP>OBJ >> OBJ>PP","condition 1 >> condition 2",26364,849656,42
242,"t14_1_2","t14",1,2,"INSTR","yes","OBJ>PP",2,"above","OBJ>PP >> PP>OBJ","condition 2 >> condition 1",6914,505307,51
241,"t14_1_2","t14",1,2,"INSTR","yes","OBJ>PP",2,"above","OBJ>PP >> PP>OBJ","condition 2 >> condition 1",7534,283332,31
263,"t14_1_2","t14",1,2,"INSTR","yes","OBJ>PP",2,"below","PP>OBJ >> OBJ>PP","condition 1 >> condition 2",11846,453761,41
270,"t14_1_2","t14",1,2,"INSTR","yes","OBJ>PP",2,"below","PP>OBJ >> OBJ>PP","condition 1 >> condition 2",12118,358690,29
220,"t14_1_2","t14",1,2,"INSTR","yes","OBJ>PP",2,"above","OBJ>PP >> PP>OBJ","condition 2 >> condition 1",7070,550087,63
229,"t14_1_2","t14",1,2,"INSTR","yes","PP>OBJ",1,"below","OBJ>PP >> PP>OBJ","condition 2 >> condition 1",6576,421519,55
234,"t14_1_2","t14",1,2,"INSTR","yes","OBJ>PP",2,"above","OBJ>PP >> PP>OBJ","condition 2 >> condition 1",10125,626202,54
236,"t14_1_2","t14",1,2,"INSTR","yes","OBJ>PP",2,"below","PP>OBJ >> OBJ>PP","condition 1 >> condition 2",6653,751490,70
246,"t14_1_2","t14",1,2,"INSTR","yes","OBJ>PP",2,"below","PP>OBJ >> OBJ>PP","condition 1 >> condition 2",9954,545759,60
248,"t14_1_2","t14",1,2,"INSTR","yes","OBJ>PP",2,"above","OBJ>PP >> PP>OBJ","condition 2 >> condition 1",5353,681952,38
268,"t14_1_2","t14",1,2,"INSTR","yes","OBJ>PP",2,"below","PP>OBJ >> OBJ>PP","condition 1 >> condition 2",7178,480542,42
232,"t14_1_2","t14",1,2,"INSTR","yes","OBJ>PP",2,"above","OBJ>PP >> PP>OBJ","condition 2 >> condition 1",3832,120437,18
247,"t14_1_2","t14",1,2,"INSTR","yes","OBJ>PP",2,"below","PP>OBJ >> OBJ>PP","condition 1 >> condition 2",5993,564777,67
258,"t14_1_2","t14",1,2,"INSTR","yes","PP>OBJ",1,"above","PP>OBJ >> OBJ>PP","condition 1 >> condition 2",16839,350023,35
254,"t14_1_2","t14",1,2,"INSTR","yes","PP>OBJ",1,"above","PP>OBJ >> OBJ>PP","condition 1 >> condition 2",29091,284899,18
238,"t14_1_2","t14",1,2,"INSTR","yes","PP>OBJ",1,"below","OBJ>PP >> PP>OBJ","condition 2 >> condition 1",7880,393116,51
244,"t14_1_2","t14",1,2,"INSTR","yes","OBJ>PP",2,"above","OBJ>PP >> PP>OBJ","condition 2 >> condition 1",7239,307932,30
251,"t14_1_2","t14",1,2,"INSTR","yes","OBJ>PP",2,"above","OBJ>PP >> PP>OBJ","condition 2 >> condition 1",4055,190820,27
224,"t14_1_2","t14",1,2,"INSTR","yes","OBJ>PP",2,"below","PP>OBJ >> OBJ>PP","condition 1 >> condition 2",4387,460954,64
240,"t14_1_2","t14",1,2,"INSTR","yes","OBJ>PP",2,"below","PP>OBJ >> OBJ>PP","condition 1 >> condition 2",7431,185368,17
222,"t14_1_2","t14",1,2,"INSTR","yes","OBJ>PP",2,"above","OBJ>PP >> PP>OBJ","condition 2 >> condition 1",11257,244540,24
257,"t14_1_2","t14",1,2,"INSTR","yes","OBJ>PP",2,"below","PP>OBJ >> OBJ>PP","condition 1 >> condition 2",14421,589716,60
267,"t14_1_2","t14",1,2,"INSTR","yes","OBJ>PP",2,"above","OBJ>PP >> PP>OBJ","condition 2 >> condition 1",6569,711895,53
266,"t14_1_2","t14",1,2,"INSTR","yes","OBJ>PP",2,"above","OBJ>PP >> PP>OBJ","condition 2 >> condition 1",8554,516203,45
255,"t14_1_2","t14",1,2,"INSTR","yes","OBJ>PP",2,"above","OBJ>PP >> PP>OBJ","condition 2 >> condition 1",14671,336629,23
223,"t14_1_2","t14",1,2,"INSTR","yes","OBJ>PP",2,"above","OBJ>PP >> PP>OBJ","condition 2 >> condition 1",20806,431600,43
252,"t14_1_2","t14",1,2,"INSTR","yes","OBJ>PP",2,"below","PP>OBJ >> OBJ>PP","condition 1 >> condition 2",7586,534348,44
228,"t14_1_2","t14",1,2,"INSTR","yes","PP>OBJ",1,"below","OBJ>PP >> PP>OBJ","condition 2 >> condition 1",14133,77169,7
239,"t14_1_2","t14",1,2,"INSTR","yes","OBJ>PP",2,"below","PP>OBJ >> OBJ>PP","condition 1 >> condition 2",6401,536774,67
245,"t14_1_2","t14",1,2,"INSTR","yes","OBJ>PP",2,"above","OBJ>PP >> PP>OBJ","condition 2 >> condition 1",17477,398797,26
233,"t14_1_2","t14",1,2,"INSTR","yes","PP>OBJ",1,"below","OBJ>PP >> PP>OBJ","condition 2 >> condition 1",6964,356391,47
230,"t14_1_2","t14",1,2,"INSTR","yes","PP>OBJ",1,"below","OBJ>PP >> PP>OBJ","condition 2 >> condition 1",9175,562844,68
221,"t14_1_2","t14",1,2,"INSTR","yes","OBJ>PP",2,"below","PP>OBJ >> OBJ>PP","condition 1 >> condition 2",22248,152049,10
264,"t14_1_2","t14",1,2,"INSTR","yes","OBJ>PP",2,"above","OBJ>PP >> PP>OBJ","condition 2 >> condition 1",15272,1209560,56
237,"t14_1_2","t14",1,2,"INSTR","yes","PP>OBJ",1,"below","OBJ>PP >> PP>OBJ","condition 2 >> condition 1",7134,353506,35
249,"t14_1_2","t14",1,2,"INSTR","yes","OBJ>PP",2,"below","PP>OBJ >> OBJ>PP","condition 1 >> condition 2",11382,767466,65
235,"t14_1_2","t14",1,2,"INSTR","yes","OBJ>PP",2,"above","OBJ>PP >> PP>OBJ","condition 2 >> condition 1",5037,172656,22
243,"t14_1_2","t14",1,2,"INSTR","yes","OBJ>PP",2,"above","OBJ>PP >> PP>OBJ","condition 2 >> condition 1",9384,189340,18
225,"t14_1_2","t14",1,2,"INSTR","yes","OBJ>PP",2,"above","OBJ>PP >> PP>OBJ","condition 2 >> condition 1",7836,423572,51
227,"t14_1_2","t14",1,2,"INSTR","yes","OBJ>PP",2,"above","OBJ>PP >> PP>OBJ","condition 2 >> condition 1",8524,623172,51
253,"t14_1_2","t14",1,2,"INSTR","yes","OBJ>PP",2,"below","PP>OBJ >> OBJ>PP","condition 1 >> condition 2",6084,506604,49
248,"t15_1_2","t15",1,2,"INSTR","yes","OBJ>PP",2,"above","OBJ>PP >> PP>OBJ","condition 2 >> condition 1",7477,347252,19
245,"t15_1_2","t15",1,2,"INSTR","yes","PP>OBJ",1,"below","OBJ>PP >> PP>OBJ","condition 2 >> condition 1",18832,529615,35
237,"t15_1_2","t15",1,2,"INSTR","yes","PP>OBJ",1,"below","OBJ>PP >> PP>OBJ","condition 2 >> condition 1",7972,103919,13
227,"t15_1_2","t15",1,2,"INSTR","yes","PP>OBJ",1,"below","OBJ>PP >> PP>OBJ","condition 2 >> condition 1",15826,502188,38
220,"t15_1_2","t15",1,2,"INSTR","yes","OBJ>PP",2,"below","PP>OBJ >> OBJ>PP","condition 1 >> condition 2",5143,414903,45
269,"t15_1_2","t15",1,2,"INSTR","yes","OBJ>PP",2,"above","OBJ>PP >> PP>OBJ","condition 2 >> condition 1",22435,894371,45
231,"t15_1_2","t15",1,2,"INSTR","yes","PP>OBJ",1,"below","OBJ>PP >> PP>OBJ","condition 2 >> condition 1",7246,254043,31
258,"t15_1_2","t15",1,2,"INSTR","yes","OBJ>PP",2,"above","OBJ>PP >> PP>OBJ","condition 2 >> condition 1",8005,524635,54
267,"t15_1_2","t15",1,2,"INSTR","yes","PP>OBJ",1,"above","PP>OBJ >> OBJ>PP","condition 1 >> condition 2",15533,487306,38
239,"t15_1_2","t15",1,2,"INSTR","yes","PP>OBJ",1,"below","OBJ>PP >> PP>OBJ","condition 2 >> condition 1",4890,451104,54
221,"t15_1_2","t15",1,2,"INSTR","yes","OBJ>PP",2,"below","PP>OBJ >> OBJ>PP","condition 1 >> condition 2",11679,256417,19
242,"t15_1_2","t15",1,2,"INSTR","yes","PP>OBJ",1,"below","OBJ>PP >> PP>OBJ","condition 2 >> condition 1",8132,194342,16
232,"t15_1_2","t15",1,2,"INSTR","yes","PP>OBJ",1,"above","PP>OBJ >> OBJ>PP","condition 1 >> condition 2",6283,317480,47
252,"t15_1_2","t15",1,2,"INSTR","yes","OBJ>PP",2,"above","OBJ>PP >> PP>OBJ","condition 2 >> condition 1",10280,708095,60
257,"t15_1_2","t15",1,2,"INSTR","yes","PP>OBJ",1,"above","PP>OBJ >> OBJ>PP","condition 1 >> condition 2",9539,539065,55
263,"t15_1_2","t15",1,2,"INSTR","yes","OBJ>PP",2,"above","OBJ>PP >> PP>OBJ","condition 2 >> condition 1",5455,576818,62
256,"t15_1_2","t15",1,2,"INSTR","yes","OBJ>PP",2,"below","PP>OBJ >> OBJ>PP","condition 1 >> condition 2",6036,178247,18
264,"t15_1_2","t15",1,2,"INSTR","yes","PP>OBJ",1,"above","PP>OBJ >> OBJ>PP","condition 1 >> condition 2",20571,374518,21
225,"t15_1_2","t15",1,2,"INSTR","yes","OBJ>PP",2,"above","OBJ>PP >> PP>OBJ","condition 2 >> condition 1",10755,357418,42
243,"t15_1_2","t15",1,2,"INSTR","yes","OBJ>PP",2,"below","PP>OBJ >> OBJ>PP","condition 1 >> condition 2",9390,95170,9
223,"t15_1_2","t15",1,2,"INSTR","yes","PP>OBJ",1,"above","PP>OBJ >> OBJ>PP","condition 1 >> condition 2",11060,533796,55
229,"t15_1_2","t15",1,2,"INSTR","yes","OBJ>PP",2,"above","OBJ>PP >> PP>OBJ","condition 2 >> condition 1",9936,406935,53
233,"t15_1_2","t15",1,2,"INSTR","yes","OBJ>PP",2,"below","PP>OBJ >> OBJ>PP","condition 1 >> condition 2",5132,396591,54
234,"t15_1_2","t15",1,2,"INSTR","yes","OBJ>PP",2,"above","OBJ>PP >> PP>OBJ","condition 2 >> condition 1",9110,531457,46
246,"t15_1_2","t15",1,2,"INSTR","yes","OBJ>PP",2,"below","PP>OBJ >> OBJ>PP","condition 1 >> condition 2",7375,433977,45
271,"t15_1_2","t15",1,2,"INSTR","yes","OBJ>PP",2,"below","PP>OBJ >> OBJ>PP","condition 1 >> condition 2",6318,307083,39
270,"t15_1_2","t15",1,2,"INSTR","yes","OBJ>PP",2,"above","OBJ>PP >> PP>OBJ","condition 2 >> condition 1",12048,612939,51
224,"t15_1_2","t15",1,2,"INSTR","yes","OBJ>PP",2,"above","OBJ>PP >> PP>OBJ","condition 2 >> condition 1",6187,342680,46
266,"t15_1_2","t15",1,2,"INSTR","yes","OBJ>PP",2,"below","PP>OBJ >> OBJ>PP","condition 1 >> condition 2",6312,633287,58
244,"t15_1_2","t15",1,2,"INSTR","yes","OBJ>PP",2,"below","PP>OBJ >> OBJ>PP","condition 1 >> condition 2",9890,594429,67
253,"t15_1_2","t15",1,2,"INSTR","yes","OBJ>PP",2,"below","PP>OBJ >> OBJ>PP","condition 1 >> condition 2",5719,650845,64
240,"t15_1_2","t15",1,2,"INSTR","yes","PP>OBJ",1,"above","PP>OBJ >> OBJ>PP","condition 1 >> condition 2",13599,412175,43
254,"t15_1_2","t15",1,2,"INSTR","yes","OBJ>PP",2,"below","PP>OBJ >> OBJ>PP","condition 1 >> condition 2",10607,573812,41
249,"t15_1_2","t15",1,2,"INSTR","yes","OBJ>PP",2,"below","PP>OBJ >> OBJ>PP","condition 1 >> condition 2",11446,785953,67
247,"t15_1_2","t15",1,2,"INSTR","yes","OBJ>PP",2,"below","PP>OBJ >> OBJ>PP","condition 1 >> condition 2",7564,371589,42
238,"t15_1_2","t15",1,2,"INSTR","yes","OBJ>PP",2,"above","OBJ>PP >> PP>OBJ","condition 2 >> condition 1",7110,243411,32
251,"t15_1_2","t15",1,2,"INSTR","yes","PP>OBJ",1,"below","OBJ>PP >> PP>OBJ","condition 2 >> condition 1",3754,346194,57
235,"t15_1_2","t15",1,2,"INSTR","yes","PP>OBJ",1,"below","OBJ>PP >> PP>OBJ","condition 2 >> condition 1",7750,147955,18
228,"t15_1_2","t15",1,2,"INSTR","yes","OBJ>PP",2,"below","PP>OBJ >> OBJ>PP","condition 1 >> condition 2",8366,567784,58
236,"t15_1_2","t15",1,2,"INSTR","yes","OBJ>PP",2,"above","OBJ>PP >> PP>OBJ","condition 2 >> condition 1",10965,444570,38
255,"t15_1_2","t15",1,2,"INSTR","yes","PP>OBJ",1,"below","OBJ>PP >> PP>OBJ","condition 2 >> condition 1",8474,309580,21
241,"t15_1_2","t15",1,2,"INSTR","yes","OBJ>PP",2,"above","OBJ>PP >> PP>OBJ","condition 2 >> condition 1",6097,433933,52
222,"t15_1_2","t15",1,2,"INSTR","yes","OBJ>PP",2,"below","PP>OBJ >> OBJ>PP","condition 1 >> condition 2",9177,314167,32
268,"t15_1_2","t15",1,2,"INSTR","yes","PP>OBJ",1,"above","PP>OBJ >> OBJ>PP","condition 1 >> condition 2",8077,656223,62
230,"t15_1_2","t15",1,2,"INSTR","yes","OBJ>PP",2,"below","PP>OBJ >> OBJ>PP","condition 1 >> condition 2",10130,249248,27
264,"t16_1_2","t16",1,2,"INSTR","yes","OBJ>PP",2,"below","PP>OBJ >> OBJ>PP","condition 1 >> condition 2",12140,992949,47
220,"t16_1_2","t16",1,2,"INSTR","yes","PP>OBJ",1,"above","PP>OBJ >> OBJ>PP","condition 1 >> condition 2",15062,334480,36
239,"t16_1_2","t16",1,2,"INSTR","yes","PP>OBJ",1,"below","OBJ>PP >> PP>OBJ","condition 2 >> condition 1",25428,101328,9
232,"t16_1_2","t16",1,2,"INSTR","yes","PP>OBJ",1,"above","PP>OBJ >> OBJ>PP","condition 1 >> condition 2",39707,464867,69
229,"t16_1_2","t16",1,2,"INSTR","yes","OBJ>PP",2,"above","OBJ>PP >> PP>OBJ","condition 2 >> condition 1",9652,196794,25
267,"t16_1_2","t16",1,2,"INSTR","yes","OBJ>PP",2,"below","PP>OBJ >> OBJ>PP","condition 1 >> condition 2",12257,238676,16
242,"t16_1_2","t16",1,2,"INSTR","yes","OBJ>PP",2,"above","OBJ>PP >> PP>OBJ","condition 2 >> condition 1",11532,566289,58
246,"t16_1_2","t16",1,2,"INSTR","yes","OBJ>PP",2,"below","PP>OBJ >> OBJ>PP","condition 1 >> condition 2",6668,486322,53
240,"t16_1_2","t16",1,2,"INSTR","yes","PP>OBJ",1,"below","OBJ>PP >> PP>OBJ","condition 2 >> condition 1",6030,568782,63
253,"t16_1_2","t16",1,2,"INSTR","yes","PP>OBJ",1,"above","PP>OBJ >> OBJ>PP","condition 1 >> condition 2",6622,450045,43
254,"t16_1_2","t16",1,2,"INSTR","yes","OBJ>PP",2,"below","PP>OBJ >> OBJ>PP","condition 1 >> condition 2",6255,718606,52
252,"t16_1_2","t16",1,2,"INSTR","yes","PP>OBJ",1,"above","PP>OBJ >> OBJ>PP","condition 1 >> condition 2",19848,682452,57
244,"t16_1_2","t16",1,2,"INSTR","yes","PP>OBJ",1,"above","PP>OBJ >> OBJ>PP","condition 1 >> condition 2",9333,416999,44
231,"t16_1_2","t16",1,2,"INSTR","yes","PP>OBJ",1,"above","PP>OBJ >> OBJ>PP","condition 1 >> condition 2",8226,291531,36
249,"t16_1_2","t16",1,2,"INSTR","yes","PP>OBJ",1,"above","PP>OBJ >> OBJ>PP","condition 1 >> condition 2",13335,462122,36
269,"t16_1_2","t16",1,2,"INSTR","yes","OBJ>PP",2,"above","OBJ>PP >> PP>OBJ","condition 2 >> condition 1",19080,668277,31
237,"t16_1_2","t16",1,2,"INSTR","yes","PP>OBJ",1,"above","PP>OBJ >> OBJ>PP","condition 1 >> condition 2",4998,518566,54
234,"t16_1_2","t16",1,2,"INSTR","yes","PP>OBJ",1,"above","PP>OBJ >> OBJ>PP","condition 1 >> condition 2",23167,568550,49
248,"t16_1_2","t16",1,2,"INSTR","yes","OBJ>PP",2,"above","OBJ>PP >> PP>OBJ","condition 2 >> condition 1",13241,898175,48
256,"t16_1_2","t16",1,2,"INSTR","yes","OBJ>PP",2,"above","OBJ>PP >> PP>OBJ","condition 2 >> condition 1",7648,553234,56
247,"t16_1_2","t16",1,2,"INSTR","yes","OBJ>PP",2,"above","OBJ>PP >> PP>OBJ","condition 2 >> condition 1",5047,289906,33
241,"t16_1_2","t16",1,2,"INSTR","yes","OBJ>PP",2,"above","OBJ>PP >> PP>OBJ","condition 2 >> condition 1",14061,158467,15
271,"t16_1_2","t16",1,2,"INSTR","yes","OBJ>PP",2,"below","PP>OBJ >> OBJ>PP","condition 1 >> condition 2",5518,182894,22
225,"t16_1_2","t16",1,2,"INSTR","yes","OBJ>PP",2,"above","OBJ>PP >> PP>OBJ","condition 2 >> condition 1",6384,563216,68
228,"t16_1_2","t16",1,2,"INSTR","yes","OBJ>PP",2,"above","OBJ>PP >> PP>OBJ","condition 2 >> condition 1",8884,360381,37
222,"t16_1_2","t16",1,2,"INSTR","yes","OBJ>PP",2,"above","OBJ>PP >> PP>OBJ","condition 2 >> condition 1",7797,468147,51
245,"t16_1_2","t16",1,2,"INSTR","yes","OBJ>PP",2,"above","OBJ>PP >> PP>OBJ","condition 2 >> condition 1",11535,227707,15
233,"t16_1_2","t16",1,2,"INSTR","yes","OBJ>PP",2,"below","PP>OBJ >> OBJ>PP","condition 1 >> condition 2",4324,420007,58
268,"t16_1_2","t16",1,2,"INSTR","yes","PP>OBJ",1,"below","OBJ>PP >> PP>OBJ","condition 2 >> condition 1",8939,507090,45
258,"t16_1_2","t16",1,2,"INSTR","yes","OBJ>PP",2,"below","PP>OBJ >> OBJ>PP","condition 1 >> condition 2",6242,451796,45
236,"t16_1_2","t16",1,2,"INSTR","yes","OBJ>PP",2,"above","OBJ>PP >> PP>OBJ","condition 2 >> condition 1",6454,624897,57
243,"t16_1_2","t16",1,2,"INSTR","yes","OBJ>PP",2,"below","PP>OBJ >> OBJ>PP","condition 1 >> condition 2",12202,686049,64
251,"t16_1_2","t16",1,2,"INSTR","yes","PP>OBJ",1,"above","PP>OBJ >> OBJ>PP","condition 1 >> condition 2",3122,326793,52
221,"t16_1_2","t16",1,2,"INSTR","yes","OBJ>PP",2,"below","PP>OBJ >> OBJ>PP","condition 1 >> condition 2",15403,217375,15
270,"t16_1_2","t16",1,2,"INSTR","yes","OBJ>PP",2,"above","OBJ>PP >> PP>OBJ","condition 2 >> condition 1",14362,244929,21
263,"t16_1_2","t16",1,2,"INSTR","yes","PP>OBJ",1,"above","PP>OBJ >> OBJ>PP","condition 1 >> condition 2",5713,606501,68
235,"t16_1_2","t16",1,2,"INSTR","yes","PP>OBJ",1,"above","PP>OBJ >> OBJ>PP","condition 1 >> condition 2",5353,324948,49
257,"t16_1_2","t16",1,2,"INSTR","yes","PP>OBJ",1,"below","OBJ>PP >> PP>OBJ","condition 2 >> condition 1",8951,449851,44
227,"t16_1_2","t16",1,2,"INSTR","yes","OBJ>PP",2,"below","PP>OBJ >> OBJ>PP","condition 1 >> condition 2",9104,647400,54
255,"t16_1_2","t16",1,2,"INSTR","yes","OBJ>PP",2,"above","OBJ>PP >> PP>OBJ","condition 2 >> condition 1",12591,609318,45
223,"t16_1_2","t16",1,2,"INSTR","yes","OBJ>PP",2,"below","PP>OBJ >> OBJ>PP","condition 1 >> condition 2",7095,599354,63
230,"t16_1_2","t16",1,2,"INSTR","yes","PP>OBJ",1,"below","OBJ>PP >> PP>OBJ","condition 2 >> condition 1",8227,229106,25
224,"t16_1_2","t16",1,2,"INSTR","yes","OBJ>PP",2,"below","PP>OBJ >> OBJ>PP","condition 1 >> condition 2",5662,428770,58
238,"t16_1_2","t16",1,2,"INSTR","yes","PP>OBJ",1,"below","OBJ>PP >> PP>OBJ","condition 2 >> condition 1",9272,310044,38
266,"t16_1_2","t16",1,2,"INSTR","yes","PP>OBJ",1,"above","PP>OBJ >> OBJ>PP","condition 1 >> condition 2",16092,166007,13
249,"t17_1_2","t17",1,2,"INSTR","yes","OBJ>PP",2,"above","OBJ>PP >> PP>OBJ","condition 2 >> condition 1",11847,211785,14
266,"t17_1_2","t17",1,2,"INSTR","yes","OBJ>PP",2,"above","OBJ>PP >> PP>OBJ","condition 2 >> condition 1",8150,387840,32
247,"t17_1_2","t17",1,2,"INSTR","yes","OBJ>PP",2,"below","PP>OBJ >> OBJ>PP","condition 1 >> condition 2",7605,170824,18
271,"t17_1_2","t17",1,2,"INSTR","yes","OBJ>PP",2,"below","PP>OBJ >> OBJ>PP","condition 1 >> condition 2",8033,272045,34
234,"t17_1_2","t17",1,2,"INSTR","yes","OBJ>PP",2,"below","PP>OBJ >> OBJ>PP","condition 1 >> condition 2",10729,80098,6
263,"t17_1_2","t17",1,2,"INSTR","yes","PP>OBJ",1,"above","PP>OBJ >> OBJ>PP","condition 1 >> condition 2",7739,321989,17
238,"t17_1_2","t17",1,2,"INSTR","yes","PP>OBJ",1,"above","PP>OBJ >> OBJ>PP","condition 1 >> condition 2",7581,173796,21
227,"t17_1_2","t17",1,2,"INSTR","yes","OBJ>PP",2,"above","OBJ>PP >> PP>OBJ","condition 2 >> condition 1",31845,479215,36
240,"t17_1_2","t17",1,2,"INSTR","yes","OBJ>PP",2,"below","PP>OBJ >> OBJ>PP","condition 1 >> condition 2",12207,394152,41
257,"t17_1_2","t17",1,2,"INSTR","yes","OBJ>PP",2,"below","PP>OBJ >> OBJ>PP","condition 1 >> condition 2",15919,71385,6
228,"t17_1_2","t17",1,2,"INSTR","yes","PP>OBJ",1,"below","OBJ>PP >> PP>OBJ","condition 2 >> condition 1",9047,595209,61
222,"t17_1_2","t17",1,2,"INSTR","yes","OBJ>PP",2,"above","OBJ>PP >> PP>OBJ","condition 2 >> condition 1",6635,616346,69
270,"t17_1_2","t17",1,2,"INSTR","yes","OBJ>PP",2,"above","OBJ>PP >> PP>OBJ","condition 2 >> condition 1",12147,439557,37
237,"t17_1_2","t17",1,2,"INSTR","yes","PP>OBJ",1,"below","OBJ>PP >> PP>OBJ","condition 2 >> condition 1",9572,136581,16
223,"t17_1_2","t17",1,2,"INSTR","yes","PP>OBJ",1,"below","OBJ>PP >> PP>OBJ","condition 2 >> condition 1",8456,344084,36
233,"t17_1_2","t17",1,2,"INSTR","yes","OBJ>PP",2,"above","OBJ>PP >> PP>OBJ","condition 2 >> condition 1",5708,367839,49
229,"t17_1_2","t17",1,2,"INSTR","yes","PP>OBJ",1,"below","OBJ>PP >> PP>OBJ","condition 2 >> condition 1",10998,54476,7
235,"t17_1_2","t17",1,2,"INSTR","yes","OBJ>PP",2,"above","OBJ>PP >> PP>OBJ","condition 2 >> condition 1",4939,296653,43
269,"t17_1_2","t17",1,2,"INSTR","yes","OBJ>PP",2,"above","OBJ>PP >> PP>OBJ","condition 2 >> condition 1",10492,1191324,64
264,"t17_1_2","t17",1,2,"INSTR","yes","OBJ>PP",2,"below","PP>OBJ >> OBJ>PP","condition 1 >> condition 2",7895,1375432,69
253,"t17_1_2","t17",1,2,"INSTR","yes","OBJ>PP",2,"below","PP>OBJ >> OBJ>PP","condition 1 >> condition 2",7069,583421,59
268,"t17_1_2","t17",1,2,"INSTR","yes","PP>OBJ",1,"below","OBJ>PP >> PP>OBJ","condition 2 >> condition 1",8072,332188,27
246,"t17_1_2","t17",1,2,"INSTR","yes","OBJ>PP",2,"above","OBJ>PP >> PP>OBJ","condition 2 >> condition 1",8401,246022,26
221,"t17_1_2","t17",1,2,"INSTR","yes","OBJ>PP",2,"above","OBJ>PP >> PP>OBJ","condition 2 >> condition 1",7732,421926,34
230,"t17_1_2","t17",1,2,"INSTR","yes","PP>OBJ",1,"below","OBJ>PP >> PP>OBJ","condition 2 >> condition 1",9502,413614,46
258,"t17_1_2","t17",1,2,"INSTR","yes","PP>OBJ",1,"above","PP>OBJ >> OBJ>PP","condition 1 >> condition 2",8248,82088,8
255,"t17_1_2","t17",1,2,"INSTR","yes","OBJ>PP",2,"above","OBJ>PP >> PP>OBJ","condition 2 >> condition 1",23191,671001,49
252,"t17_1_2","t17",1,2,"INSTR","yes","OBJ>PP",2,"below","PP>OBJ >> OBJ>PP","condition 1 >> condition 2",13528,454048,37
245,"t17_1_2","t17",1,2,"INSTR","yes","PP>OBJ",1,"above","PP>OBJ >> OBJ>PP","condition 1 >> condition 2",16318,787358,57
267,"t17_1_2","t17",1,2,"INSTR","yes","OBJ>PP",2,"above","OBJ>PP >> PP>OBJ","condition 2 >> condition 1",8234,314685,23
248,"t17_1_2","t17",1,2,"INSTR","yes","OBJ>PP",2,"below","PP>OBJ >> OBJ>PP","condition 1 >> condition 2",38331,501403,30
251,"t17_1_2","t17",1,2,"INSTR","yes","OBJ>PP",2,"below","PP>OBJ >> OBJ>PP","condition 1 >> condition 2",5465,114833,13
239,"t17_1_2","t17",1,2,"INSTR","yes","PP>OBJ",1,"below","OBJ>PP >> PP>OBJ","condition 2 >> condition 1",6785,304356,33
236,"t17_1_2","t17",1,2,"INSTR","yes","OBJ>PP",2,"below","PP>OBJ >> OBJ>PP","condition 1 >> condition 2",9584,352482,28
242,"t17_1_2","t17",1,2,"INSTR","yes","OBJ>PP",2,"below","PP>OBJ >> OBJ>PP","condition 1 >> condition 2",7798,235358,20
256,"t17_1_2","t17",1,2,"INSTR","yes","OBJ>PP",2,"below","PP>OBJ >> OBJ>PP","condition 1 >> condition 2",8837,113784,12
244,"t17_1_2","t17",1,2,"INSTR","yes","OBJ>PP",2,"above","OBJ>PP >> PP>OBJ","condition 2 >> condition 1",5464,497648,55
243,"t17_1_2","t17",1,2,"INSTR","yes","OBJ>PP",2,"above","OBJ>PP >> PP>OBJ","condition 2 >> condition 1",15524,386573,36
224,"t17_1_2","t17",1,2,"INSTR","yes","OBJ>PP",2,"above","OBJ>PP >> PP>OBJ","condition 2 >> condition 1",7076,489867,68
241,"t17_1_2","t17",1,2,"INSTR","yes","OBJ>PP",2,"below","PP>OBJ >> OBJ>PP","condition 1 >> condition 2",6599,134331,12
220,"t17_1_2","t17",1,2,"INSTR","yes","OBJ>PP",2,"below","PP>OBJ >> OBJ>PP","condition 1 >> condition 2",4007,498963,57
232,"t17_1_2","t17",1,2,"INSTR","yes","OBJ>PP",2,"above","OBJ>PP >> PP>OBJ","condition 2 >> condition 1",3570,264296,38
231,"t17_1_2","t17",1,2,"INSTR","yes","OBJ>PP",2,"below","PP>OBJ >> OBJ>PP","condition 1 >> condition 2",6096,542088,70
254,"t17_1_2","t17",1,2,"INSTR","yes","OBJ>PP",2,"above","OBJ>PP >> PP>OBJ","condition 2 >> condition 1",8924,742162,54
225,"t17_1_2","t17",1,2,"INSTR","yes","OBJ>PP",2,"above","OBJ>PP >> PP>OBJ","condition 2 >> condition 1",8298,444309,53
221,"t18_1_2","t18",1,2,"INSTR","yes","OBJ>PP",2,"above","OBJ>PP >> PP>OBJ","condition 2 >> condition 1",10069,341709,27
227,"t18_1_2","t18",1,2,"INSTR","yes","OBJ>PP",2,"above","OBJ>PP >> PP>OBJ","condition 2 >> condition 1",9285,735956,65
255,"t18_1_2","t18",1,2,"INSTR","yes","PP>OBJ",1,"below","OBJ>PP >> PP>OBJ","condition 2 >> condition 1",16098,122675,6
249,"t18_1_2","t18",1,2,"INSTR","yes","OBJ>PP",2,"above","OBJ>PP >> PP>OBJ","condition 2 >> condition 1",8779,581217,45
251,"t18_1_2","t18",1,2,"INSTR","yes","OBJ>PP",2,"above","OBJ>PP >> PP>OBJ","condition 2 >> condition 1",6456,282980,44
245,"t18_1_2","t18",1,2,"INSTR","yes","OBJ>PP",2,"above","OBJ>PP >> PP>OBJ","condition 2 >> condition 1",13623,607214,42
241,"t18_1_2","t18",1,2,"INSTR","yes","OBJ>PP",2,"below","PP>OBJ >> OBJ>PP","condition 1 >> condition 2",4773,468290,58
253,"t18_1_2","t18",1,2,"INSTR","yes","OBJ>PP",2,"below","PP>OBJ >> OBJ>PP","condition 1 >> condition 2",8056,391357,38
257,"t18_1_2","t18",1,2,"INSTR","yes","OBJ>PP",2,"above","OBJ>PP >> PP>OBJ","condition 2 >> condition 1",11437,558081,57
231,"t18_1_2","t18",1,2,"INSTR","yes","OBJ>PP",2,"below","PP>OBJ >> OBJ>PP","condition 1 >> condition 2",7088,213439,26
252,"t18_1_2","t18",1,2,"INSTR","yes","PP>OBJ",1,"below","OBJ>PP >> PP>OBJ","condition 2 >> condition 1",19123,412886,33
243,"t18_1_2","t18",1,2,"INSTR","yes","OBJ>PP",2,"below","PP>OBJ >> OBJ>PP","condition 1 >> condition 2",9788,605897,58
222,"t18_1_2","t18",1,2,"INSTR","yes","PP>OBJ",1,"below","OBJ>PP >> PP>OBJ","condition 2 >> condition 1",8505,481896,53
229,"t18_1_2","t18",1,2,"INSTR","yes","OBJ>PP",2,"below","PP>OBJ >> OBJ>PP","condition 1 >> condition 2",6167,358248,46
246,"t18_1_2","t18",1,2,"INSTR","yes","OBJ>PP",2,"above","OBJ>PP >> PP>OBJ","condition 2 >> condition 1",6171,507048,56
240,"t18_1_2","t18",1,2,"INSTR","yes","PP>OBJ",1,"below","OBJ>PP >> PP>OBJ","condition 2 >> condition 1",6982,613302,69
254,"t18_1_2","t18",1,2,"INSTR","yes","OBJ>PP",2,"below","PP>OBJ >> OBJ>PP","condition 1 >> condition 2",47595,628662,43
228,"t18_1_2","t18",1,2,"INSTR","yes","OBJ>PP",2,"above","OBJ>PP >> PP>OBJ","condition 2 >> condition 1",10084,535365,54
256,"t18_1_2","t18",1,2,"INSTR","yes","OBJ>PP",2,"above","OBJ>PP >> PP>OBJ","condition 2 >> condition 1",4967,413418,43
230,"t18_1_2","t18",1,2,"INSTR","yes","PP>OBJ",1,"above","PP>OBJ >> OBJ>PP","condition 1 >> condition 2",7169,339758,38
266,"t18_1_2","t18",1,2,"INSTR","yes","OBJ>PP",2,"below","PP>OBJ >> OBJ>PP","condition 1 >> condition 2",7131,565453,51
233,"t18_1_2","t18",1,2,"INSTR","yes","PP>OBJ",1,"below","OBJ>PP >> PP>OBJ","condition 2 >> condition 1",11956,319311,41
223,"t18_1_2","t18",1,2,"INSTR","yes","OBJ>PP",2,"above","OBJ>PP >> PP>OBJ","condition 2 >> condition 1",6478,451836,46
238,"t18_1_2","t18",1,2,"INSTR","yes","OBJ>PP",2,"below","PP>OBJ >> OBJ>PP","condition 1 >> condition 2",6631,436163,57
232,"t18_1_2","t18",1,2,"INSTR","yes","PP>OBJ",1,"above","PP>OBJ >> OBJ>PP","condition 1 >> condition 2",4659,336006,51
225,"t18_1_2","t18",1,2,"INSTR","yes","OBJ>PP",2,"below","PP>OBJ >> OBJ>PP","condition 1 >> condition 2",15520,232390,27
268,"t18_1_2","t18",1,2,"INSTR","yes","OBJ>PP",2,"above","OBJ>PP >> PP>OBJ","condition 2 >> condition 1",10394,632742,59
242,"t18_1_2","t18",1,2,"INSTR","yes","OBJ>PP",2,"above","OBJ>PP >> PP>OBJ","condition 2 >> condition 1",6564,479089,47
236,"t18_1_2","t18",1,2,"INSTR","yes","OBJ>PP",2,"below","PP>OBJ >> OBJ>PP","condition 1 >> condition 2",6415,427190,36
237,"t18_1_2","t18",1,2,"INSTR","yes","OBJ>PP",2,"below","PP>OBJ >> OBJ>PP","condition 1 >> condition 2",11729,50322,6
239,"t18_1_2","t18",1,2,"INSTR","yes","OBJ>PP",2,"below","PP>OBJ >> OBJ>PP","condition 1 >> condition 2",5541,406740,47
258,"t18_1_2","t18",1,2,"INSTR","yes","OBJ>PP",2,"above","OBJ>PP >> PP>OBJ","condition 2 >> condition 1",7561,267815,28
263,"t18_1_2","t18",1,2,"INSTR","yes","OBJ>PP",2,"above","OBJ>PP >> PP>OBJ","condition 2 >> condition 1",4675,585441,64
267,"t18_1_2","t18",1,2,"INSTR","yes","OBJ>PP",2,"above","OBJ>PP >> PP>OBJ","condition 2 >> condition 1",5959,781336,62
264,"t18_1_2","t18",1,2,"INSTR","yes","OBJ>PP",2,"above","OBJ>PP >> PP>OBJ","condition 2 >> condition 1",29326,88091,7
235,"t18_1_2","t18",1,2,"INSTR","yes","PP>OBJ",1,"below","OBJ>PP >> PP>OBJ","condition 2 >> condition 1",7056,375213,58
247,"t18_1_2","t18",1,2,"INSTR","yes","OBJ>PP",2,"below","PP>OBJ >> OBJ>PP","condition 1 >> condition 2",8028,405185,46
220,"t18_1_2","t18",1,2,"INSTR","yes","OBJ>PP",2,"below","PP>OBJ >> OBJ>PP","condition 1 >> condition 2",4962,438004,48
234,"t18_1_2","t18",1,2,"INSTR","yes","OBJ>PP",2,"above","OBJ>PP >> PP>OBJ","condition 2 >> condition 1",11799,444697,38
248,"t18_1_2","t18",1,2,"INSTR","yes","OBJ>PP",2,"below","PP>OBJ >> OBJ>PP","condition 1 >> condition 2",41203,653277,34
224,"t18_1_2","t18",1,2,"INSTR","yes","OBJ>PP",2,"above","OBJ>PP >> PP>OBJ","condition 2 >> condition 1",8933,207870,26
271,"t18_1_2","t18",1,2,"INSTR","yes","OBJ>PP",2,"above","OBJ>PP >> PP>OBJ","condition 2 >> condition 1",6733,319204,41
270,"t18_1_2","t18",1,2,"INSTR","yes","OBJ>PP",2,"above","OBJ>PP >> PP>OBJ","condition 2 >> condition 1",10612,461528,39
269,"t18_1_2","t18",1,2,"INSTR","yes","OBJ>PP",2,"above","OBJ>PP >> PP>OBJ","condition 2 >> condition 1",16532,1075338,56
244,"t18_1_2","t18",1,2,"INSTR","yes","OBJ>PP",2,"below","PP>OBJ >> OBJ>PP","condition 1 >> condition 2",4408,525938,59
245,"t19_1_2","t19",1,2,"INSTR","no","OBJ>PP",2,"above","OBJ>PP >> PP>OBJ","condition 2 >> condition 1",22144,114247,7
264,"t19_1_2","t19",1,2,"INSTR","no","OBJ>PP",2,"above","OBJ>PP >> PP>OBJ","condition 2 >> condition 1",8161,832713,40
244,"t19_1_2","t19",1,2,"INSTR","no","OBJ>PP",2,"below","PP>OBJ >> OBJ>PP","condition 1 >> condition 2",6630,474489,52
228,"t19_1_2","t19",1,2,"INSTR","no","OBJ>PP",2,"below","PP>OBJ >> OBJ>PP","condition 1 >> condition 2",8136,226874,21
222,"t19_1_2","t19",1,2,"INSTR","no","OBJ>PP",2,"below","PP>OBJ >> OBJ>PP","condition 1 >> condition 2",13369,513597,56
237,"t19_1_2","t19",1,2,"INSTR","no","PP>OBJ",1,"above","PP>OBJ >> OBJ>PP","condition 1 >> condition 2",5984,157007,19
231,"t19_1_2","t19",1,2,"INSTR","no","PP>OBJ",1,"below","OBJ>PP >> PP>OBJ","condition 2 >> condition 1",6959,528008,68
240,"t19_1_2","t19",1,2,"INSTR","no","OBJ>PP",2,"below","PP>OBJ >> OBJ>PP","condition 1 >> condition 2",24902,121487,10
243,"t19_1_2","t19",1,2,"INSTR","no","OBJ>PP",2,"below","PP>OBJ >> OBJ>PP","condition 1 >> condition 2",9648,489689,46
252,"t19_1_2","t19",1,2,"INSTR","no","OBJ>PP",2,"below","PP>OBJ >> OBJ>PP","condition 1 >> condition 2",15320,384870,31
239,"t19_1_2","t19",1,2,"INSTR","no","PP>OBJ",1,"below","OBJ>PP >> PP>OBJ","condition 2 >> condition 1",10345,233216,23
227,"t19_1_2","t19",1,2,"INSTR","no","PP>OBJ",1,"above","PP>OBJ >> OBJ>PP","condition 1 >> condition 2",13268,367141,30
254,"t19_1_2","t19",1,2,"INSTR","no","PP>OBJ",1,"above","PP>OBJ >> OBJ>PP","condition 1 >> condition 2",7165,249861,16
225,"t19_1_2","t19",1,2,"INSTR","no","OBJ>PP",2,"above","OBJ>PP >> PP>OBJ","condition 2 >> condition 1",10242,494663,60
253,"t19_1_2","t19",1,2,"INSTR","no","OBJ>PP",2,"below","PP>OBJ >> OBJ>PP","condition 1 >> condition 2",10119,105670,8
236,"t19_1_2","t19",1,2,"INSTR","no","OBJ>PP",2,"above","OBJ>PP >> PP>OBJ","condition 2 >> condition 1",11231,498906,42
246,"t19_1_2","t19",1,2,"INSTR","no","PP>OBJ",1,"above","PP>OBJ >> OBJ>PP","condition 1 >> condition 2",10700,528189,58
