"workerId","itemId","CONDITION_NO","ENCODING","ADVERBIAL_TYPE","KEY_CONDITION","ANSWER","ANSWER_LABEL","rt","time_elapsed","trial_index"
169,"t01_1",1,"t01","INSTR","PP>OBJ",5,"vollkommen natürlich",4810,362859,59
156,"t01_1",1,"t01","INSTR","PP>OBJ",4,"eher natürlich",9282,948377,96
134,"t01_1",1,"t01","INSTR","PP>OBJ",4,"eher natürlich",6769,540642,69
172,"t01_1",1,"t01","INSTR","PP>OBJ",4,"eher natürlich",8533,697507,65
177,"t01_1",1,"t01","INSTR","PP>OBJ",4,"eher natürlich",5530,299128,26
196,"t01_1",1,"t01","INSTR","PP>OBJ",5,"vollkommen natürlich",4556,241965,41
165,"t01_1",1,"t01","INSTR","PP>OBJ",4,"eher natürlich",5569,429981,58
184,"t01_1",1,"t01","INSTR","PP>OBJ",2,"eher unnatürlich",7131,850685,93
175,"t01_1",1,"t01","INSTR","PP>OBJ",2,"eher unnatürlich",8771,166035,20
182,"t01_1",1,"t01","INSTR","PP>OBJ",4,"eher natürlich",8309,825859,86
135,"t01_1",1,"t01","INSTR","PP>OBJ",4,"eher natürlich",7277,588008,74
163,"t01_1",1,"t01","INSTR","PP>OBJ",3,"keine Tendenz",7145,294074,39
133,"t01_1",1,"t01","INSTR","PP>OBJ",3,"keine Tendenz",16133,821542,65
193,"t01_1",1,"t01","INSTR","PP>OBJ",5,"vollkommen natürlich",21030,873494,49
171,"t01_1",1,"t01","INSTR","PP>OBJ",5,"vollkommen natürlich",8757,584990,65
166,"t01_1",1,"t01","INSTR","PP>OBJ",4,"eher natürlich",7823,468411,69
194,"t01_1",1,"t01","INSTR","PP>OBJ",5,"vollkommen natürlich",8426,93681,9
190,"t01_1",1,"t01","INSTR","PP>OBJ",2,"eher unnatürlich",17021,196924,26
191,"t01_1",1,"t01","INSTR","PP>OBJ",4,"eher natürlich",24967,468612,16
159,"t01_1",1,"t01","INSTR","PP>OBJ",3,"keine Tendenz",5020,474587,76
148,"t01_1",1,"t01","INSTR","PP>OBJ",4,"eher natürlich",158284,1331230,61
151,"t01_1",1,"t01","INSTR","PP>OBJ",2,"eher unnatürlich",8865,875063,104
131,"t01_1",1,"t01","INSTR","PP>OBJ",4,"eher natürlich",6021,393307,45
162,"t01_1",1,"t01","INSTR","PP>OBJ",4,"eher natürlich",10536,145856,13
157,"t01_1",1,"t01","INSTR","PP>OBJ",4,"eher natürlich",5692,627892,61
176,"t01_1",1,"t01","INSTR","PP>OBJ",2,"eher unnatürlich",4223,559838,64
174,"t01_1",1,"t01","INSTR","PP>OBJ",4,"eher natürlich",20371,377991,41
161,"t01_1",1,"t01","INSTR","PP>OBJ",4,"eher natürlich",15443,555572,51
192,"t01_1",1,"t01","INSTR","PP>OBJ",5,"vollkommen natürlich",17291,124949,12
178,"t01_1",1,"t01","INSTR","PP>OBJ",4,"eher natürlich",3578,524855,81
160,"t01_1",1,"t01","INSTR","PP>OBJ",4,"eher natürlich",4625,401309,56
139,"t01_1",1,"t01","INSTR","PP>OBJ",4,"eher natürlich",10143,1026539,88
170,"t01_1",1,"t01","INSTR","PP>OBJ",2,"eher unnatürlich",5166,116326,19
186,"t01_1",1,"t01","INSTR","PP>OBJ",4,"eher natürlich",5385,684845,103
150,"t01_1",1,"t01","INSTR","PP>OBJ",4,"eher natürlich",6108,1090696,101
149,"t01_1",1,"t01","INSTR","PP>OBJ",4,"eher natürlich",9778,685315,44
204,"t01_2",2,"t01","INSTR","OBJ>PP",4,"eher natürlich",8696,364131,38
138,"t01_2",2,"t01","INSTR","OBJ>PP",2,"eher unnatürlich",8600,256917,32
202,"t01_2",2,"t01","INSTR","OBJ>PP",5,"vollkommen natürlich",10259,138624,12
208,"t01_2",2,"t01","INSTR","OBJ>PP",4,"eher natürlich",25566,221308,16
158,"t01_2",2,"t01","INSTR","OBJ>PP",4,"eher natürlich",10225,977490,82
211,"t01_2",2,"t01","INSTR","OBJ>PP",4,"eher natürlich",4650,83104,10
215,"t01_2",2,"t01","INSTR","OBJ>PP",5,"vollkommen natürlich",6930,225894,29
147,"t01_2",2,"t01","INSTR","OBJ>PP",3,"keine Tendenz",14887,747079,94
197,"t01_2",2,"t01","INSTR","OBJ>PP",5,"vollkommen natürlich",8656,1027088,89
205,"t01_2",2,"t01","INSTR","OBJ>PP",2,"eher unnatürlich",8805,377604,35
200,"t01_2",2,"t01","INSTR","OBJ>PP",5,"vollkommen natürlich",18541,791470,68
130,"t01_2",2,"t01","INSTR","OBJ>PP",5,"vollkommen natürlich",14978,669354,52
210,"t01_2",2,"t01","INSTR","OBJ>PP",4,"eher natürlich",11630,606638,52
181,"t01_2",2,"t01","INSTR","OBJ>PP",4,"eher natürlich",5910,779135,105
206,"t01_2",2,"t01","INSTR","OBJ>PP",4,"eher natürlich",13840,392373,40
136,"t01_2",2,"t01","INSTR","OBJ>PP",2,"eher unnatürlich",7278,341315,38
155,"t01_2",2,"t01","INSTR","OBJ>PP",5,"vollkommen natürlich",9824,840255,73
199,"t01_2",2,"t01","INSTR","OBJ>PP",4,"eher natürlich",19022,535389,39
183,"t01_2",2,"t01","INSTR","OBJ>PP",5,"vollkommen natürlich",7124,807592,56
168,"t01_2",2,"t01","INSTR","OBJ>PP",4,"eher natürlich",5895,805437,89
214,"t01_2",2,"t01","INSTR","OBJ>PP",3,"keine Tendenz",33402,551409,27
179,"t01_2",2,"t01","INSTR","OBJ>PP",4,"eher natürlich",9671,154530,16
212,"t01_2",2,"t01","INSTR","OBJ>PP",5,"vollkommen natürlich",9292,938270,100
132,"t01_2",2,"t01","INSTR","OBJ>PP",4,"eher natürlich",8086,67994,7
167,"t01_2",2,"t01","INSTR","OBJ>PP",4,"eher natürlich",9101,887686,100
128,"t01_2",2,"t01","INSTR","OBJ>PP",4,"eher natürlich",8239,605673,52
187,"t01_2",2,"t01","INSTR","OBJ>PP",4,"eher natürlich",5171,115533,15
213,"t01_2",2,"t01","INSTR","OBJ>PP",4,"eher natürlich",9659,1178522,102
209,"t01_2",2,"t01","INSTR","OBJ>PP",5,"vollkommen natürlich",12113,607134,49
185,"t01_2",2,"t01","INSTR","OBJ>PP",5,"vollkommen natürlich",9363,290455,33
180,"t01_2",2,"t01","INSTR","OBJ>PP",4,"eher natürlich",10284,1029584,104
201,"t01_2",2,"t01","INSTR","OBJ>PP",4,"eher natürlich",10197,698905,88
203,"t01_2",2,"t01","INSTR","OBJ>PP",5,"vollkommen natürlich",5261,692068,66
137,"t01_2",2,"t01","INSTR","OBJ>PP",5,"vollkommen natürlich",16320,549909,67
189,"t01_2",2,"t01","INSTR","OBJ>PP",4,"eher natürlich",14557,381261,31
211,"t02_1",1,"t02","INSTR","PP>OBJ",5,"vollkommen natürlich",4411,305873,45
189,"t02_1",1,"t02","INSTR","PP>OBJ",2,"eher unnatürlich",8668,615093,54
187,"t02_1",1,"t02","INSTR","PP>OBJ",5,"vollkommen natürlich",9460,801517,101
213,"t02_1",1,"t02","INSTR","PP>OBJ",3,"keine Tendenz",11078,626491,52
167,"t02_1",1,"t02","INSTR","PP>OBJ",2,"eher unnatürlich",9784,149007,14
138,"t02_1",1,"t02","INSTR","PP>OBJ",3,"keine Tendenz",6974,579427,72
208,"t02_1",1,"t02","INSTR","PP>OBJ",2,"eher unnatürlich",13954,149090,11
206,"t02_1",1,"t02","INSTR","PP>OBJ",4,"eher natürlich",6438,639859,69
137,"t02_1",1,"t02","INSTR","PP>OBJ",5,"vollkommen natürlich",4620,290603,38
209,"t02_1",1,"t02","INSTR","PP>OBJ",1,"vollkommen unnatürlich",4693,1024246,102
214,"t02_1",1,"t02","INSTR","PP>OBJ",4,"eher natürlich",10115,760649,41
179,"t02_1",1,"t02","INSTR","PP>OBJ",4,"eher natürlich",11161,81403,7
212,"t02_1",1,"t02","INSTR","PP>OBJ",4,"eher natürlich",27331,494055,45
199,"t02_1",1,"t02","INSTR","PP>OBJ",5,"vollkommen natürlich",12927,370133,26
181,"t02_1",1,"t02","INSTR","PP>OBJ",4,"eher natürlich",8453,131010,16
215,"t02_1",1,"t02","INSTR","PP>OBJ",5,"vollkommen natürlich",7566,373152,47
203,"t02_1",1,"t02","INSTR","PP>OBJ",5,"vollkommen natürlich",4618,800513,86
185,"t02_1",1,"t02","INSTR","PP>OBJ",4,"eher natürlich",9593,340140,38
201,"t02_1",1,"t02","INSTR","PP>OBJ",4,"eher natürlich",12591,741264,93
130,"t02_1",1,"t02","INSTR","PP>OBJ",3,"keine Tendenz",16434,173242,10
210,"t02_1",1,"t02","INSTR","PP>OBJ",5,"vollkommen natürlich",18045,1216659,106
158,"t02_1",1,"t02","INSTR","PP>OBJ",4,"eher natürlich",6592,705704,59
180,"t02_1",1,"t02","INSTR","PP>OBJ",4,"eher natürlich",5982,266001,24
168,"t02_1",1,"t02","INSTR","PP>OBJ",4,"eher natürlich",6130,713158,75
197,"t02_1",1,"t02","INSTR","PP>OBJ",5,"vollkommen natürlich",12553,773262,62
136,"t02_1",1,"t02","INSTR","PP>OBJ",4,"eher natürlich",7808,772342,89
132,"t02_1",1,"t02","INSTR","PP>OBJ",4,"eher natürlich",10478,453843,62
202,"t02_1",1,"t02","INSTR","PP>OBJ",3,"keine Tendenz",11361,825752,88
128,"t02_1",1,"t02","INSTR","PP>OBJ",4,"eher natürlich",7458,695573,60
147,"t02_1",1,"t02","INSTR","PP>OBJ",3,"keine Tendenz",8637,216280,26
155,"t02_1",1,"t02","INSTR","PP>OBJ",5,"vollkommen natürlich",6482,855430,75
183,"t02_1",1,"t02","INSTR","PP>OBJ",4,"eher natürlich",9422,453933,29
200,"t02_1",1,"t02","INSTR","PP>OBJ",4,"eher natürlich",12143,436646,38
205,"t02_1",1,"t02","INSTR","PP>OBJ",4,"eher natürlich",8560,896666,94
190,"t02_2",2,"t02","INSTR","OBJ>PP",3,"keine Tendenz",6821,53374,7
135,"t02_2",2,"t02","INSTR","OBJ>PP",2,"eher unnatürlich",9271,615772,77
192,"t02_2",2,"t02","INSTR","OBJ>PP",4,"eher natürlich",336432,857213,48
172,"t02_2",2,"t02","INSTR","OBJ>PP",4,"eher natürlich",10052,91931,7
134,"t02_2",2,"t02","INSTR","OBJ>PP",5,"vollkommen natürlich",5410,721477,95
157,"t02_2",2,"t02","INSTR","OBJ>PP",4,"eher natürlich",5060,376632,35
171,"t02_2",2,"t02","INSTR","OBJ>PP",5,"vollkommen natürlich",9004,245793,25
177,"t02_2",2,"t02","INSTR","OBJ>PP",4,"eher natürlich",6080,856584,95
186,"t02_2",2,"t02","INSTR","OBJ>PP",5,"vollkommen natürlich",6633,240241,33
162,"t02_2",2,"t02","INSTR","OBJ>PP",5,"vollkommen natürlich",10699,440037,45
161,"t02_2",2,"t02","INSTR","OBJ>PP",5,"vollkommen natürlich",14942,897029,78
178,"t02_2",2,"t02","INSTR","OBJ>PP",5,"vollkommen natürlich",10907,138163,17
194,"t02_2",2,"t02","INSTR","OBJ>PP",5,"vollkommen natürlich",8108,571086,64
176,"t02_2",2,"t02","INSTR","OBJ>PP",5,"vollkommen natürlich",5563,191766,17
196,"t02_2",2,"t02","INSTR","OBJ>PP",4,"eher natürlich",3903,490097,86
165,"t02_2",2,"t02","INSTR","OBJ>PP",4,"eher natürlich",6415,647989,95
174,"t02_2",2,"t02","INSTR","OBJ>PP",4,"eher natürlich",5907,507614,58
133,"t02_2",2,"t02","INSTR","OBJ>PP",4,"eher natürlich",15232,883809,71
156,"t02_2",2,"t02","INSTR","OBJ>PP",4,"eher natürlich",10326,320133,25
131,"t02_2",2,"t02","INSTR","OBJ>PP",4,"eher natürlich",6577,475217,55
163,"t02_2",2,"t02","INSTR","OBJ>PP",2,"eher unnatürlich",4916,148827,19
184,"t02_2",2,"t02","INSTR","OBJ>PP",4,"eher natürlich",9846,112552,9
182,"t02_2",2,"t02","INSTR","OBJ>PP",5,"vollkommen natürlich",28560,1021190,99
149,"t02_2",2,"t02","INSTR","OBJ>PP",5,"vollkommen natürlich",8604,874482,59
170,"t02_2",2,"t02","INSTR","OBJ>PP",2,"eher unnatürlich",4983,375742,64
175,"t02_2",2,"t02","INSTR","OBJ>PP",4,"eher natürlich",7985,619539,73
160,"t02_2",2,"t02","INSTR","OBJ>PP",4,"eher natürlich",5589,86898,9
169,"t02_2",2,"t02","INSTR","OBJ>PP",5,"vollkommen natürlich",5575,75045,8
148,"t02_2",2,"t02","INSTR","OBJ>PP",4,"eher natürlich",10581,1911454,96
166,"t02_2",2,"t02","INSTR","OBJ>PP",5,"vollkommen natürlich",3485,282685,48
159,"t02_2",2,"t02","INSTR","OBJ>PP",4,"eher natürlich",6825,206250,30
191,"t02_2",2,"t02","INSTR","OBJ>PP",4,"eher natürlich",7319,748671,45
150,"t02_2",2,"t02","INSTR","OBJ>PP",4,"eher natürlich",14459,895342,79
139,"t02_2",2,"t02","INSTR","OBJ>PP",4,"eher natürlich",46750,990360,84
151,"t02_2",2,"t02","INSTR","OBJ>PP",4,"eher natürlich",7221,547096,66
193,"t02_2",2,"t02","INSTR","OBJ>PP",5,"vollkommen natürlich",5162,1477660,92
139,"t03_1",1,"t03","INSTR","PP>OBJ",4,"eher natürlich",7117,463328,42
150,"t03_1",1,"t03","INSTR","PP>OBJ",4,"eher natürlich",6356,1019563,92
165,"t03_1",1,"t03","INSTR","PP>OBJ",4,"eher natürlich",5996,267656,31
133,"t03_1",1,"t03","INSTR","PP>OBJ",3,"keine Tendenz",19177,1230715,102
135,"t03_1",1,"t03","INSTR","PP>OBJ",2,"eher unnatürlich",7300,365721,46
176,"t03_1",1,"t03","INSTR","PP>OBJ",2,"eher unnatürlich",17669,308270,29
160,"t03_1",1,"t03","INSTR","PP>OBJ",4,"eher natürlich",3628,550670,78
182,"t03_1",1,"t03","INSTR","PP>OBJ",4,"eher natürlich",6862,318102,29
151,"t03_1",1,"t03","INSTR","PP>OBJ",4,"eher natürlich",10663,596320,72
161,"t03_1",1,"t03","INSTR","PP>OBJ",4,"eher natürlich",12912,1192397,100
196,"t03_1",1,"t03","INSTR","PP>OBJ",4,"eher natürlich",24962,456723,79
162,"t03_1",1,"t03","INSTR","PP>OBJ",5,"vollkommen natürlich",5948,671185,75
159,"t03_1",1,"t03","INSTR","PP>OBJ",4,"eher natürlich",5305,458777,73
166,"t03_1",1,"t03","INSTR","PP>OBJ",5,"vollkommen natürlich",4523,198508,32
192,"t03_1",1,"t03","INSTR","PP>OBJ",3,"keine Tendenz",7986,189744,19
191,"t03_1",1,"t03","INSTR","PP>OBJ",3,"keine Tendenz",4241,1011367,98
184,"t03_1",1,"t03","INSTR","PP>OBJ",4,"eher natürlich",10387,300512,25
193,"t03_1",1,"t03","INSTR","PP>OBJ",5,"vollkommen natürlich",6168,1252271,79
163,"t03_1",1,"t03","INSTR","PP>OBJ",3,"keine Tendenz",8573,533364,74
186,"t03_1",1,"t03","INSTR","PP>OBJ",4,"eher natürlich",4385,278491,39
190,"t03_1",1,"t03","INSTR","PP>OBJ",1,"vollkommen unnatürlich",6295,173924,24
148,"t03_1",1,"t03","INSTR","PP>OBJ",4,"eher natürlich",8062,1710623,82
174,"t03_1",1,"t03","INSTR","PP>OBJ",4,"eher natürlich",8834,729875,92
178,"t03_1",1,"t03","INSTR","PP>OBJ",4,"eher natürlich",7186,49393,6
149,"t03_1",1,"t03","INSTR","PP>OBJ",4,"eher natürlich",6179,349369,15
175,"t03_1",1,"t03","INSTR","PP>OBJ",4,"eher natürlich",6515,677384,81
157,"t03_1",1,"t03","INSTR","PP>OBJ",4,"eher natürlich",7355,690237,71
170,"t03_1",1,"t03","INSTR","PP>OBJ",4,"eher natürlich",4622,169382,28
171,"t03_1",1,"t03","INSTR","PP>OBJ",4,"eher natürlich",4810,634052,72
131,"t03_1",1,"t03","INSTR","PP>OBJ",2,"eher unnatürlich",6042,363568,41
194,"t03_1",1,"t03","INSTR","PP>OBJ",4,"eher natürlich",5703,744670,81
169,"t03_1",1,"t03","INSTR","PP>OBJ",4,"eher natürlich",5983,164727,23
134,"t03_1",1,"t03","INSTR","PP>OBJ",2,"eher unnatürlich",7922,323644,42
177,"t03_1",1,"t03","INSTR","PP>OBJ",4,"eher natürlich",6593,882177,98
156,"t03_1",1,"t03","INSTR","PP>OBJ",2,"eher unnatürlich",4615,673623,63
172,"t03_1",1,"t03","INSTR","PP>OBJ",4,"eher natürlich",9781,837914,76
132,"t03_2",2,"t03","INSTR","OBJ>PP",4,"eher natürlich",6299,604858,85
209,"t03_2",2,"t03","INSTR","OBJ>PP",5,"vollkommen natürlich",7632,834621,73
179,"t03_2",2,"t03","INSTR","OBJ>PP",5,"vollkommen natürlich",11612,347372,38
180,"t03_2",2,"t03","INSTR","OBJ>PP",4,"eher natürlich",9278,603729,56
181,"t03_2",2,"t03","INSTR","OBJ>PP",4,"eher natürlich",7432,199953,26
136,"t03_2",2,"t03","INSTR","OBJ>PP",4,"eher natürlich",7009,885370,104
130,"t03_2",2,"t03","INSTR","OBJ>PP",3,"keine Tendenz",23465,122640,6
213,"t03_2",2,"t03","INSTR","OBJ>PP",4,"eher natürlich",20987,121054,8
212,"t03_2",2,"t03","INSTR","OBJ>PP",5,"vollkommen natürlich",7338,738989,76
203,"t03_2",2,"t03","INSTR","OBJ>PP",5,"vollkommen natürlich",16743,899131,101
183,"t03_2",2,"t03","INSTR","OBJ>PP",4,"eher natürlich",7576,494915,32
214,"t03_2",2,"t03","INSTR","OBJ>PP",5,"vollkommen natürlich",11079,2404755,95
138,"t03_2",2,"t03","INSTR","OBJ>PP",4,"eher natürlich",5850,707799,95
210,"t03_2",2,"t03","INSTR","OBJ>PP",5,"vollkommen natürlich",12580,505173,43
185,"t03_2",2,"t03","INSTR","OBJ>PP",4,"eher natürlich",6104,450908,52
147,"t03_2",2,"t03","INSTR","OBJ>PP",3,"keine Tendenz",8532,564361,69
206,"t03_2",2,"t03","INSTR","OBJ>PP",5,"vollkommen natürlich",4432,321063,32
202,"t03_2",2,"t03","INSTR","OBJ>PP",5,"vollkommen natürlich",9211,636559,69
215,"t03_2",2,"t03","INSTR","OBJ>PP",5,"vollkommen natürlich",6356,528627,65
189,"t03_2",2,"t03","INSTR","OBJ>PP",4,"eher natürlich",7188,893573,89
137,"t03_2",2,"t03","INSTR","OBJ>PP",5,"vollkommen natürlich",7306,113079,14
158,"t03_2",2,"t03","INSTR","OBJ>PP",4,"eher natürlich",9837,1093687,91
155,"t03_2",2,"t03","INSTR","OBJ>PP",5,"vollkommen natürlich",8551,287228,25
211,"t03_2",2,"t03","INSTR","OBJ>PP",4,"eher natürlich",4897,370347,55
168,"t03_2",2,"t03","INSTR","OBJ>PP",5,"vollkommen natürlich",9241,928036,104
199,"t03_2",2,"t03","INSTR","OBJ>PP",4,"eher natürlich",11135,306509,22
201,"t03_2",2,"t03","INSTR","OBJ>PP",4,"eher natürlich",9531,164231,19
197,"t03_2",2,"t03","INSTR","OBJ>PP",5,"vollkommen natürlich",8284,843039,69
128,"t03_2",2,"t03","INSTR","OBJ>PP",4,"eher natürlich",9716,1052236,93
200,"t03_2",2,"t03","INSTR","OBJ>PP",5,"vollkommen natürlich",9678,366247,31
205,"t03_2",2,"t03","INSTR","OBJ>PP",5,"vollkommen natürlich",9371,253108,23
208,"t03_2",2,"t03","INSTR","OBJ>PP",2,"eher unnatürlich",11593,97985,7
204,"t03_2",2,"t03","INSTR","OBJ>PP",3,"keine Tendenz",4981,344287,36
167,"t03_2",2,"t03","INSTR","OBJ>PP",4,"eher natürlich",10074,529641,56
187,"t03_2",2,"t03","INSTR","OBJ>PP",4,"eher natürlich",9768,87333,10
203,"t04_1",1,"t04","INSTR","PP>OBJ",5,"vollkommen natürlich",3359,742336,76
130,"t04_1",1,"t04","INSTR","PP>OBJ",5,"vollkommen natürlich",10484,799058,64
209,"t04_1",1,"t04","INSTR","PP>OBJ",2,"eher unnatürlich",6592,918870,85
202,"t04_1",1,"t04","INSTR","PP>OBJ",5,"vollkommen natürlich",5789,420853,46
197,"t04_1",1,"t04","INSTR","PP>OBJ",5,"vollkommen natürlich",4936,637107,48
200,"t04_1",1,"t04","INSTR","PP>OBJ",5,"vollkommen natürlich",5934,625134,54
189,"t04_1",1,"t04","INSTR","PP>OBJ",4,"eher natürlich",6235,628789,56
185,"t04_1",1,"t04","INSTR","PP>OBJ",4,"eher natürlich",4800,407978,48
215,"t04_1",1,"t04","INSTR","PP>OBJ",5,"vollkommen natürlich",4958,812605,105
214,"t04_1",1,"t04","INSTR","PP>OBJ",5,"vollkommen natürlich",15042,2599660,104
137,"t04_1",1,"t04","INSTR","PP>OBJ",4,"eher natürlich",6824,713191,84
158,"t04_1",1,"t04","INSTR","PP>OBJ",4,"eher natürlich",12040,689023,57
212,"t04_1",1,"t04","INSTR","PP>OBJ",5,"vollkommen natürlich",5663,724143,74
210,"t04_1",1,"t04","INSTR","PP>OBJ",4,"eher natürlich",7158,367717,30
187,"t04_1",1,"t04","INSTR","PP>OBJ",5,"vollkommen natürlich",7677,630699,79
179,"t04_1",1,"t04","INSTR","PP>OBJ",5,"vollkommen natürlich",5495,845927,100
183,"t04_1",1,"t04","INSTR","PP>OBJ",3,"keine Tendenz",8109,323589,21
167,"t04_1",1,"t04","INSTR","PP>OBJ",3,"keine Tendenz",7650,581944,62
199,"t04_1",1,"t04","INSTR","PP>OBJ",4,"eher natürlich",15223,83782,6
128,"t04_1",1,"t04","INSTR","PP>OBJ",5,"vollkommen natürlich",10011,140756,12
132,"t04_1",1,"t04","INSTR","PP>OBJ",3,"keine Tendenz",7670,394315,54
181,"t04_1",1,"t04","INSTR","PP>OBJ",4,"eher natürlich",6791,161825,20
136,"t04_1",1,"t04","INSTR","PP>OBJ",5,"vollkommen natürlich",6323,685198,78
213,"t04_1",1,"t04","INSTR","PP>OBJ",4,"eher natürlich",8378,777640,67
147,"t04_1",1,"t04","INSTR","PP>OBJ",4,"eher natürlich",7496,82710,9
201,"t04_1",1,"t04","INSTR","PP>OBJ",5,"vollkommen natürlich",7461,56519,6
168,"t04_1",1,"t04","INSTR","PP>OBJ",5,"vollkommen natürlich",5869,302911,31
204,"t04_1",1,"t04","INSTR","PP>OBJ",3,"keine Tendenz",4487,456932,47
180,"t04_1",1,"t04","INSTR","PP>OBJ",4,"eher natürlich",5829,945232,95
211,"t04_1",1,"t04","INSTR","PP>OBJ",4,"eher natürlich",5240,126602,17
208,"t04_1",1,"t04","INSTR","PP>OBJ",5,"vollkommen natürlich",10831,384513,30
138,"t04_1",1,"t04","INSTR","PP>OBJ",2,"eher unnatürlich",4970,542371,66
205,"t04_1",1,"t04","INSTR","PP>OBJ",2,"eher unnatürlich",8561,485594,46
206,"t04_1",1,"t04","INSTR","PP>OBJ",4,"eher natürlich",4906,830311,95
155,"t04_1",1,"t04","INSTR","PP>OBJ",5,"vollkommen natürlich",6543,870446,77
163,"t04_2",2,"t04","INSTR","OBJ>PP",4,"eher natürlich",7770,592357,83
174,"t04_2",2,"t04","INSTR","OBJ>PP",4,"eher natürlich",5308,689703,87
171,"t04_2",2,"t04","INSTR","OBJ>PP",5,"vollkommen natürlich",8013,561532,62
133,"t04_2",2,"t04","INSTR","OBJ>PP",5,"vollkommen natürlich",5972,1097961,90
190,"t04_2",2,"t04","INSTR","OBJ>PP",4,"eher natürlich",7084,562762,80
149,"t04_2",2,"t04","INSTR","OBJ>PP",2,"eher unnatürlich",64103,789643,49
182,"t04_2",2,"t04","INSTR","OBJ>PP",5,"vollkommen natürlich",8126,157484,14
159,"t04_2",2,"t04","INSTR","OBJ>PP",4,"eher natürlich",9372,65053,7
166,"t04_2",2,"t04","INSTR","OBJ>PP",5,"vollkommen natürlich",6268,368734,60
150,"t04_2",2,"t04","INSTR","OBJ>PP",4,"eher natürlich",22837,234814,16
170,"t04_2",2,"t04","INSTR","OBJ>PP",4,"eher natürlich",2463,583117,105
162,"t04_2",2,"t04","INSTR","OBJ>PP",5,"vollkommen natürlich",5495,328201,33
161,"t04_2",2,"t04","INSTR","OBJ>PP",5,"vollkommen natürlich",7157,1243489,104
165,"t04_2",2,"t04","INSTR","OBJ>PP",4,"eher natürlich",4898,528117,74
176,"t04_2",2,"t04","INSTR","OBJ>PP",5,"vollkommen natürlich",6579,380190,39
148,"t04_2",2,"t04","INSTR","OBJ>PP",5,"vollkommen natürlich",6803,1932630,99
177,"t04_2",2,"t04","INSTR","OBJ>PP",4,"eher natürlich",8570,741976,80
184,"t04_2",2,"t04","INSTR","OBJ>PP",4,"eher natürlich",6615,268669,21
135,"t04_2",2,"t04","INSTR","OBJ>PP",4,"eher natürlich",7383,275115,34
156,"t04_2",2,"t04","INSTR","OBJ>PP",5,"vollkommen natürlich",10364,629467,58
175,"t04_2",2,"t04","INSTR","OBJ>PP",4,"eher natürlich",5442,498015,58
172,"t04_2",2,"t04","INSTR","OBJ>PP",4,"eher natürlich",9623,956353,90
186,"t04_2",2,"t04","INSTR","OBJ>PP",5,"vollkommen natürlich",5329,313886,44
193,"t04_2",2,"t04","INSTR","OBJ>PP",5,"vollkommen natürlich",9840,495251,25
160,"t04_2",2,"t04","INSTR","OBJ>PP",5,"vollkommen natürlich",5495,188682,24
196,"t04_2",2,"t04","INSTR","OBJ>PP",5,"vollkommen natürlich",4682,255345,43
131,"t04_2",2,"t04","INSTR","OBJ>PP",4,"eher natürlich",11176,551045,64
134,"t04_2",2,"t04","INSTR","OBJ>PP",4,"eher natürlich",5197,82806,8
194,"t04_2",2,"t04","INSTR","OBJ>PP",5,"vollkommen natürlich",5498,530618,58
192,"t04_2",2,"t04","INSTR","OBJ>PP",1,"vollkommen unnatürlich",6142,94505,9
191,"t04_2",2,"t04","INSTR","OBJ>PP",3,"keine Tendenz",2933,948932,86
139,"t04_2",2,"t04","INSTR","OBJ>PP",4,"eher natürlich",5870,266519,26
151,"t04_2",2,"t04","INSTR","OBJ>PP",5,"vollkommen natürlich",9422,768635,92
169,"t04_2",2,"t04","INSTR","OBJ>PP",5,"vollkommen natürlich",3825,393261,65
178,"t04_2",2,"t04","INSTR","OBJ>PP",5,"vollkommen natürlich",3747,359122,50
157,"t04_2",2,"t04","INSTR","OBJ>PP",4,"eher natürlich",8985,871136,90
174,"t05_1",1,"t05","INSTR","PP>OBJ",4,"eher natürlich",4113,484591,55
131,"t05_1",1,"t05","INSTR","PP>OBJ",5,"vollkommen natürlich",5790,497551,58
157,"t05_1",1,"t05","INSTR","PP>OBJ",2,"eher unnatürlich",7737,316401,27
192,"t05_1",1,"t05","INSTR","PP>OBJ",5,"vollkommen natürlich",5912,1128379,78
151,"t05_1",1,"t05","INSTR","PP>OBJ",5,"vollkommen natürlich",6349,87081,9
193,"t05_1",1,"t05","INSTR","PP>OBJ",5,"vollkommen natürlich",4809,1448806,88
165,"t05_1",1,"t05","INSTR","PP>OBJ",4,"eher natürlich",5652,357768,46
134,"t05_1",1,"t05","INSTR","PP>OBJ",4,"eher natürlich",8586,120028,12
176,"t05_1",1,"t05","INSTR","PP>OBJ",4,"eher natürlich",4932,527203,59
170,"t05_1",1,"t05","INSTR","PP>OBJ",2,"eher unnatürlich",5605,274406,45
190,"t05_1",1,"t05","INSTR","PP>OBJ",3,"keine Tendenz",4822,378611,53
182,"t05_1",1,"t05","INSTR","PP>OBJ",4,"eher natürlich",11086,339061,31
171,"t05_1",1,"t05","INSTR","PP>OBJ",4,"eher natürlich",7060,454400,49
150,"t05_1",1,"t05","INSTR","PP>OBJ",4,"eher natürlich",5687,921167,82
133,"t05_1",1,"t05","INSTR","PP>OBJ",3,"keine Tendenz",10288,850544,68
161,"t05_1",1,"t05","INSTR","PP>OBJ",5,"vollkommen natürlich",10985,701429,63
162,"t05_1",1,"t05","INSTR","PP>OBJ",4,"eher natürlich",11755,120330,10
191,"t05_1",1,"t05","INSTR","PP>OBJ",3,"keine Tendenz",6102,731283,42
163,"t05_1",1,"t05","INSTR","PP>OBJ",2,"eher unnatürlich",3621,241615,32
148,"t05_1",1,"t05","INSTR","PP>OBJ",2,"eher unnatürlich",7132,1492406,73
178,"t05_1",1,"t05","INSTR","PP>OBJ",4,"eher natürlich",3377,538343,84
160,"t05_1",1,"t05","INSTR","PP>OBJ",4,"eher natürlich",8442,317848,44
177,"t05_1",1,"t05","INSTR","PP>OBJ",4,"eher natürlich",5208,705976,75
172,"t05_1",1,"t05","INSTR","PP>OBJ",4,"eher natürlich",6755,1022112,98
194,"t05_1",1,"t05","INSTR","PP>OBJ",5,"vollkommen natürlich",5342,280784,31
166,"t05_1",1,"t05","INSTR","PP>OBJ",5,"vollkommen natürlich",3947,232285,38
159,"t05_1",1,"t05","INSTR","PP>OBJ",4,"eher natürlich",6388,134675,17
135,"t05_1",1,"t05","INSTR","PP>OBJ",4,"eher natürlich",5630,470044,59
196,"t05_1",1,"t05","INSTR","PP>OBJ",5,"vollkommen natürlich",4824,351448,60
156,"t05_1",1,"t05","INSTR","PP>OBJ",4,"eher natürlich",9992,709479,67
186,"t05_1",1,"t05","INSTR","PP>OBJ",4,"eher natürlich",5653,554703,81
169,"t05_1",1,"t05","INSTR","PP>OBJ",5,"vollkommen natürlich",8754,533661,92
139,"t05_1",1,"t05","INSTR","PP>OBJ",4,"eher natürlich",8986,902962,78
175,"t05_1",1,"t05","INSTR","PP>OBJ",4,"eher natürlich",6031,92513,11
184,"t05_1",1,"t05","INSTR","PP>OBJ",4,"eher natürlich",6018,170988,16
149,"t05_1",1,"t05","INSTR","PP>OBJ",4,"eher natürlich",9077,328870,12
147,"t05_2",2,"t05","INSTR","OBJ>PP",4,"eher natürlich",4516,795281,102
205,"t05_2",2,"t05","INSTR","OBJ>PP",2,"eher unnatürlich",9581,827721,85
180,"t05_2",2,"t05","INSTR","OBJ>PP",5,"vollkommen natürlich",8077,897241,88
136,"t05_2",2,"t05","INSTR","OBJ>PP",4,"eher natürlich",10522,412297,46
138,"t05_2",2,"t05","INSTR","OBJ>PP",4,"eher natürlich",9831,659082,85
211,"t05_2",2,"t05","INSTR","OBJ>PP",5,"vollkommen natürlich",6536,330208,48
210,"t05_2",2,"t05","INSTR","OBJ>PP",5,"vollkommen natürlich",8694,869445,76
215,"t05_2",2,"t05","INSTR","OBJ>PP",5,"vollkommen natürlich",5220,442107,56
137,"t05_2",2,"t05","INSTR","OBJ>PP",5,"vollkommen natürlich",4299,176875,24
200,"t05_2",2,"t05","INSTR","OBJ>PP",5,"vollkommen natürlich",11287,1119189,99
181,"t05_2",2,"t05","INSTR","OBJ>PP",5,"vollkommen natürlich",4952,429813,56
189,"t05_2",2,"t05","INSTR","OBJ>PP",4,"eher natürlich",10221,871958,86
197,"t05_2",2,"t05","INSTR","OBJ>PP",5,"vollkommen natürlich",15095,385371,25
201,"t05_2",2,"t05","INSTR","OBJ>PP",5,"vollkommen natürlich",5124,828496,103
199,"t05_2",2,"t05","INSTR","OBJ>PP",5,"vollkommen natürlich",11167,590869,43
187,"t05_2",2,"t05","INSTR","OBJ>PP",5,"vollkommen natürlich",8834,200152,25
168,"t05_2",2,"t05","INSTR","OBJ>PP",5,"vollkommen natürlich",5469,726739,78
202,"t05_2",2,"t05","INSTR","OBJ>PP",4,"eher natürlich",11041,297640,32
212,"t05_2",2,"t05","INSTR","OBJ>PP",5,"vollkommen natürlich",5117,621590,61
128,"t05_2",2,"t05","INSTR","OBJ>PP",4,"eher natürlich",5434,482493,41
185,"t05_2",2,"t05","INSTR","OBJ>PP",5,"vollkommen natürlich",5743,497414,59
213,"t05_2",2,"t05","INSTR","OBJ>PP",4,"eher natürlich",7976,384552,30
209,"t05_2",2,"t05","INSTR","OBJ>PP",4,"eher natürlich",17936,656023,53
179,"t05_2",2,"t05","INSTR","OBJ>PP",5,"vollkommen natürlich",6390,775680,91
132,"t05_2",2,"t05","INSTR","OBJ>PP",5,"vollkommen natürlich",6964,711619,99
155,"t05_2",2,"t05","INSTR","OBJ>PP",5,"vollkommen natürlich",25851,1015682,85
208,"t05_2",2,"t05","INSTR","OBJ>PP",4,"eher natürlich",9207,444446,35
214,"t05_2",2,"t05","INSTR","OBJ>PP",5,"vollkommen natürlich",25457,904527,50
206,"t05_2",2,"t05","INSTR","OBJ>PP",5,"vollkommen natürlich",7540,167479,15
167,"t05_2",2,"t05","INSTR","OBJ>PP",5,"vollkommen natürlich",6023,460522,49
158,"t05_2",2,"t05","INSTR","OBJ>PP",5,"vollkommen natürlich",13603,1139385,95
203,"t05_2",2,"t05","INSTR","OBJ>PP",5,"vollkommen natürlich",5724,278134,40
130,"t05_2",2,"t05","INSTR","OBJ>PP",5,"vollkommen natürlich",11036,980785,80
183,"t05_2",2,"t05","INSTR","OBJ>PP",4,"eher natürlich",25787,539277,34
132,"t06_1",1,"t06","INSTR","PP>OBJ",4,"eher natürlich",5547,344372,47
179,"t06_1",1,"t06","INSTR","PP>OBJ",2,"eher unnatürlich",7944,829106,97
138,"t06_1",1,"t06","INSTR","PP>OBJ",2,"eher unnatürlich",4306,644892,83
215,"t06_1",1,"t06","INSTR","PP>OBJ",5,"vollkommen natürlich",8319,61184,6
189,"t06_1",1,"t06","INSTR","PP>OBJ",1,"vollkommen unnatürlich",12943,140718,10
211,"t06_1",1,"t06","INSTR","PP>OBJ",4,"eher natürlich",8321,275573,39
187,"t06_1",1,"t06","INSTR","PP>OBJ",4,"eher natürlich",7979,242823,31
205,"t06_1",1,"t06","INSTR","PP>OBJ",3,"keine Tendenz",10731,999028,104
208,"t06_1",1,"t06","INSTR","PP>OBJ",3,"keine Tendenz",9358,186674,14
167,"t06_1",1,"t06","INSTR","PP>OBJ",3,"keine Tendenz",6277,707787,78
168,"t06_1",1,"t06","INSTR","PP>OBJ",5,"vollkommen natürlich",9646,369546,39
183,"t06_1",1,"t06","INSTR","PP>OBJ",4,"eher natürlich",14644,767773,51
137,"t06_1",1,"t06","INSTR","PP>OBJ",5,"vollkommen natürlich",9602,99333,12
185,"t06_1",1,"t06","INSTR","PP>OBJ",4,"eher natürlich",6676,477383,56
155,"t06_1",1,"t06","INSTR","PP>OBJ",5,"vollkommen natürlich",14589,469950,42
130,"t06_1",1,"t06","INSTR","PP>OBJ",5,"vollkommen natürlich",13873,952273,77
128,"t06_1",1,"t06","INSTR","PP>OBJ",4,"eher natürlich",5536,1097865,99
197,"t06_1",1,"t06","INSTR","PP>OBJ",5,"vollkommen natürlich",11304,721688,56
209,"t06_1",1,"t06","INSTR","PP>OBJ",1,"vollkommen unnatürlich",7814,328873,23
200,"t06_1",1,"t06","INSTR","PP>OBJ",5,"vollkommen natürlich",11022,689942,59
158,"t06_1",1,"t06","INSTR","PP>OBJ",4,"eher natürlich",9647,670019,55
206,"t06_1",1,"t06","INSTR","PP>OBJ",4,"eher natürlich",5379,447524,47
202,"t06_1",1,"t06","INSTR","PP>OBJ",4,"eher natürlich",5446,438242,49
203,"t06_1",1,"t06","INSTR","PP>OBJ",4,"eher natürlich",5023,319183,44
180,"t06_1",1,"t06","INSTR","PP>OBJ",3,"keine Tendenz",8717,826713,79
147,"t06_1",1,"t06","INSTR","PP>OBJ",3,"keine Tendenz",13032,69465,7
199,"t06_1",1,"t06","INSTR","PP>OBJ",4,"eher natürlich",14263,1327989,100
213,"t06_1",1,"t06","INSTR","PP>OBJ",3,"keine Tendenz",7795,180415,14
210,"t06_1",1,"t06","INSTR","PP>OBJ",2,"eher unnatürlich",7133,462814,39
214,"t06_1",1,"t06","INSTR","PP>OBJ",5,"vollkommen natürlich",11374,2543512,101
212,"t06_1",1,"t06","INSTR","PP>OBJ",5,"vollkommen natürlich",6809,909205,97
201,"t06_1",1,"t06","INSTR","PP>OBJ",5,"vollkommen natürlich",5710,271391,34
181,"t06_1",1,"t06","INSTR","PP>OBJ",4,"eher natürlich",6331,48477,6
136,"t06_1",1,"t06","INSTR","PP>OBJ",4,"eher natürlich",11951,63071,6
172,"t06_2",2,"t06","INSTR","OBJ>PP",5,"vollkommen natürlich",10359,565220,51
174,"t06_2",2,"t06","INSTR","OBJ>PP",4,"eher natürlich",6464,143252,14
149,"t06_2",2,"t06","INSTR","OBJ>PP",5,"vollkommen natürlich",11351,939101,65
151,"t06_2",2,"t06","INSTR","OBJ>PP",5,"vollkommen natürlich",6248,430665,53
196,"t06_2",2,"t06","INSTR","OBJ>PP",5,"vollkommen natürlich",5197,101874,14
177,"t06_2",2,"t06","INSTR","OBJ>PP",4,"eher natürlich",6185,226640,17
131,"t06_2",2,"t06","INSTR","OBJ>PP",4,"eher natürlich",7398,818254,98
176,"t06_2",2,"t06","INSTR","OBJ>PP",5,"vollkommen natürlich",11872,886140,101
194,"t06_2",2,"t06","INSTR","OBJ>PP",5,"vollkommen natürlich",8262,305753,34
192,"t06_2",2,"t06","INSTR","OBJ>PP",2,"eher unnatürlich",78403,515489,46
165,"t06_2",2,"t06","INSTR","OBJ>PP",2,"eher unnatürlich",4381,584477,84
161,"t06_2",2,"t06","INSTR","OBJ>PP",3,"keine Tendenz",14005,258680,23
171,"t06_2",2,"t06","INSTR","OBJ>PP",4,"eher natürlich",7813,546269,60
139,"t06_2",2,"t06","INSTR","OBJ>PP",4,"eher natürlich",15280,71981,6
135,"t06_2",2,"t06","INSTR","OBJ>PP",4,"eher natürlich",8308,649711,81
170,"t06_2",2,"t06","INSTR","OBJ>PP",2,"eher unnatürlich",5396,317518,53
159,"t06_2",2,"t06","INSTR","OBJ>PP",4,"eher natürlich",5142,622105,100
157,"t06_2",2,"t06","INSTR","OBJ>PP",4,"eher natürlich",7479,332309,29
182,"t06_2",2,"t06","INSTR","OBJ>PP",4,"eher natürlich",18382,80049,6
178,"t06_2",2,"t06","INSTR","OBJ>PP",4,"eher natürlich",4553,438511,65
193,"t06_2",2,"t06","INSTR","OBJ>PP",5,"vollkommen natürlich",7659,1076387,63
190,"t06_2",2,"t06","INSTR","OBJ>PP",4,"eher natürlich",6871,160842,22
175,"t06_2",2,"t06","INSTR","OBJ>PP",2,"eher unnatürlich",6085,70039,8
134,"t06_2",2,"t06","INSTR","OBJ>PP",4,"eher natürlich",19399,757500,99
156,"t06_2",2,"t06","INSTR","OBJ>PP",5,"vollkommen natürlich",8452,855120,84
186,"t06_2",2,"t06","INSTR","OBJ>PP",4,"eher natürlich",5853,530448,76
150,"t06_2",2,"t06","INSTR","OBJ>PP",4,"eher natürlich",5934,490069,40
166,"t06_2",2,"t06","INSTR","OBJ>PP",5,"vollkommen natürlich",5248,274986,46
163,"t06_2",2,"t06","INSTR","OBJ>PP",5,"vollkommen natürlich",9144,567768,79
184,"t06_2",2,"t06","INSTR","OBJ>PP",5,"vollkommen natürlich",5543,742023,78
148,"t06_2",2,"t06","INSTR","OBJ>PP",2,"eher unnatürlich",15188,1142463,57
169,"t06_2",2,"t06","INSTR","OBJ>PP",5,"vollkommen natürlich",4904,257153,40
133,"t06_2",2,"t06","INSTR","OBJ>PP",5,"vollkommen natürlich",13626,515614,43
160,"t06_2",2,"t06","INSTR","OBJ>PP",4,"eher natürlich",6048,439706,62
162,"t06_2",2,"t06","INSTR","OBJ>PP",5,"vollkommen natürlich",5203,635615,70
191,"t06_2",2,"t06","INSTR","OBJ>PP",2,"eher unnatürlich",4334,406088,13
149,"t07_1",1,"t07","INSTR","PP>OBJ",4,"eher natürlich",8712,435851,18
166,"t07_1",1,"t07","INSTR","PP>OBJ",4,"eher natürlich",4901,62910,10
175,"t07_1",1,"t07","INSTR","PP>OBJ",4,"eher natürlich",8494,223954,27
170,"t07_1",1,"t07","INSTR","PP>OBJ",2,"eher unnatürlich",3540,463694,79
133,"t07_1",1,"t07","INSTR","PP>OBJ",2,"eher unnatürlich",6550,179321,14
192,"t07_1",1,"t07","INSTR","PP>OBJ",4,"eher natürlich",7585,1198084,87
161,"t07_1",1,"t07","INSTR","PP>OBJ",5,"vollkommen natürlich",9143,122931,11
148,"t07_1",1,"t07","INSTR","PP>OBJ",5,"vollkommen natürlich",8141,1045095,50
191,"t07_1",1,"t07","INSTR","PP>OBJ",3,"keine Tendenz",5010,910188,78
160,"t07_1",1,"t07","INSTR","PP>OBJ",4,"eher natürlich",5763,670438,95
184,"t07_1",1,"t07","INSTR","PP>OBJ",4,"eher natürlich",5334,474161,43
171,"t07_1",1,"t07","INSTR","PP>OBJ",4,"eher natürlich",6467,727239,82
193,"t07_1",1,"t07","INSTR","PP>OBJ",5,"vollkommen natürlich",9864,588517,31
150,"t07_1",1,"t07","INSTR","PP>OBJ",4,"eher natürlich",5060,800033,69
135,"t07_1",1,"t07","INSTR","PP>OBJ",4,"eher natürlich",5803,226686,28
157,"t07_1",1,"t07","INSTR","PP>OBJ",4,"eher natürlich",6930,705133,73
159,"t07_1",1,"t07","INSTR","PP>OBJ",4,"eher natürlich",9873,636872,102
139,"t07_1",1,"t07","INSTR","PP>OBJ",4,"eher natürlich",10197,520449,48
177,"t07_1",1,"t07","INSTR","PP>OBJ",4,"eher natürlich",8602,455455,44
196,"t07_1",1,"t07","INSTR","PP>OBJ",5,"vollkommen natürlich",4540,476561,83
156,"t07_1",1,"t07","INSTR","PP>OBJ",2,"eher unnatürlich",7516,416502,35
190,"t07_1",1,"t07","INSTR","PP>OBJ",3,"keine Tendenz",5759,596947,85
131,"t07_1",1,"t07","INSTR","PP>OBJ",3,"keine Tendenz",6745,229308,24
134,"t07_1",1,"t07","INSTR","PP>OBJ",2,"eher unnatürlich",7966,237541,29
165,"t07_1",1,"t07","INSTR","PP>OBJ",4,"eher natürlich",6812,691017,102
186,"t07_1",1,"t07","INSTR","PP>OBJ",2,"eher unnatürlich",5381,541818,78
178,"t07_1",1,"t07","INSTR","PP>OBJ",4,"eher natürlich",4526,388733,55
172,"t07_1",1,"t07","INSTR","PP>OBJ",3,"keine Tendenz",9142,681094,63
182,"t07_1",1,"t07","INSTR","PP>OBJ",4,"eher natürlich",6579,673777,66
163,"t07_1",1,"t07","INSTR","PP>OBJ",2,"eher unnatürlich",7466,552729,77
174,"t07_1",1,"t07","INSTR","PP>OBJ",4,"eher natürlich",4675,784749,102
151,"t07_1",1,"t07","INSTR","PP>OBJ",4,"eher natürlich",5737,158175,20
169,"t07_1",1,"t07","INSTR","PP>OBJ",4,"eher natürlich",6403,136469,18
162,"t07_1",1,"t07","INSTR","PP>OBJ",5,"vollkommen natürlich",8087,383982,39
176,"t07_1",1,"t07","INSTR","PP>OBJ",2,"eher unnatürlich",6202,506991,55
194,"t07_1",1,"t07","INSTR","PP>OBJ",4,"eher natürlich",7950,796636,87
205,"t07_2",2,"t07","INSTR","OBJ>PP",4,"eher natürlich",7431,879139,92
208,"t07_2",2,"t07","INSTR","OBJ>PP",4,"eher natürlich",9169,684169,53
185,"t07_2",2,"t07","INSTR","OBJ>PP",5,"vollkommen natürlich",4645,537723,65
209,"t07_2",2,"t07","INSTR","OBJ>PP",5,"vollkommen natürlich",8516,384535,28
206,"t07_2",2,"t07","INSTR","OBJ>PP",3,"keine Tendenz",7328,723980,80
155,"t07_2",2,"t07","INSTR","OBJ>PP",5,"vollkommen natürlich",7785,888705,79
212,"t07_2",2,"t07","INSTR","OBJ>PP",5,"vollkommen natürlich",6145,711879,72
211,"t07_2",2,"t07","INSTR","OBJ>PP",3,"keine Tendenz",3828,641325,93
168,"t07_2",2,"t07","INSTR","OBJ>PP",4,"eher natürlich",7494,670405,69
197,"t07_2",2,"t07","INSTR","OBJ>PP",5,"vollkommen natürlich",11119,1101450,98
201,"t07_2",2,"t07","INSTR","OBJ>PP",2,"eher unnatürlich",8957,396383,50
203,"t07_2",2,"t07","INSTR","OBJ>PP",4,"eher natürlich",5644,148681,20
130,"t07_2",2,"t07","INSTR","OBJ>PP",5,"vollkommen natürlich",14319,392058,28
179,"t07_2",2,"t07","INSTR","OBJ>PP",5,"vollkommen natürlich",9511,406098,45
167,"t07_2",2,"t07","INSTR","OBJ>PP",2,"eher unnatürlich",6846,631960,69
147,"t07_2",2,"t07","INSTR","OBJ>PP",2,"eher unnatürlich",14969,304472,37
181,"t07_2",2,"t07","INSTR","OBJ>PP",5,"vollkommen natürlich",7492,717461,95
183,"t07_2",2,"t07","INSTR","OBJ>PP",4,"eher natürlich",16050,198931,12
136,"t07_2",2,"t07","INSTR","OBJ>PP",4,"eher natürlich",6465,860285,100
204,"t07_2",2,"t07","INSTR","OBJ>PP",1,"vollkommen unnatürlich",16682,278562,31
180,"t07_2",2,"t07","INSTR","OBJ>PP",4,"eher natürlich",4741,994385,100
158,"t07_2",2,"t07","INSTR","OBJ>PP",3,"keine Tendenz",8159,620718,50
138,"t07_2",2,"t07","INSTR","OBJ>PP",2,"eher unnatürlich",9011,388095,48
128,"t07_2",2,"t07","INSTR","OBJ>PP",4,"eher natürlich",17854,577378,49
210,"t07_2",2,"t07","INSTR","OBJ>PP",4,"eher natürlich",6405,962711,85
213,"t07_2",2,"t07","INSTR","OBJ>PP",4,"eher natürlich",9829,978232,84
187,"t07_2",2,"t07","INSTR","OBJ>PP",4,"eher natürlich",10153,615896,77
200,"t07_2",2,"t07","INSTR","OBJ>PP",5,"vollkommen natürlich",10685,643158,56
137,"t07_2",2,"t07","INSTR","OBJ>PP",5,"vollkommen natürlich",7974,856631,101
199,"t07_2",2,"t07","INSTR","OBJ>PP",5,"vollkommen natürlich",14110,1137269,85
215,"t07_2",2,"t07","INSTR","OBJ>PP",5,"vollkommen natürlich",6450,406682,51
202,"t07_2",2,"t07","INSTR","OBJ>PP",4,"eher natürlich",9909,78034,7
189,"t07_2",2,"t07","INSTR","OBJ>PP",2,"eher unnatürlich",6750,762725,71
132,"t07_2",2,"t07","INSTR","OBJ>PP",4,"eher natürlich",5154,158618,20
214,"t07_2",2,"t07","INSTR","OBJ>PP",4,"eher natürlich",44721,1625456,73
136,"t08_1",1,"t08","INSTR","PP>OBJ",5,"vollkommen natürlich",7427,184615,22
183,"t08_1",1,"t08","INSTR","PP>OBJ",4,"eher natürlich",21050,155599,9
181,"t08_1",1,"t08","INSTR","PP>OBJ",2,"eher unnatürlich",5660,487250,63
197,"t08_1",1,"t08","INSTR","PP>OBJ",5,"vollkommen natürlich",8922,300278,19
203,"t08_1",1,"t08","INSTR","PP>OBJ",2,"eher unnatürlich",6679,734557,74
201,"t08_1",1,"t08","INSTR","PP>OBJ",4,"eher natürlich",8277,463423,59
155,"t08_1",1,"t08","INSTR","PP>OBJ",4,"eher natürlich",9711,1245246,101
179,"t08_1",1,"t08","INSTR","PP>OBJ",5,"vollkommen natürlich",8886,881258,105
209,"t08_1",1,"t08","INSTR","PP>OBJ",1,"vollkommen unnatürlich",9204,1012654,100
137,"t08_1",1,"t08","INSTR","PP>OBJ",4,"eher natürlich",15240,82233,10
130,"t08_1",1,"t08","INSTR","PP>OBJ",5,"vollkommen natürlich",10347,1240305,105
213,"t08_1",1,"t08","INSTR","PP>OBJ",4,"eher natürlich",8395,486195,39
189,"t08_1",1,"t08","INSTR","PP>OBJ",4,"eher natürlich",26151,538262,46
214,"t08_1",1,"t08","INSTR","PP>OBJ",5,"vollkommen natürlich",11233,847741,46
180,"t08_1",1,"t08","INSTR","PP>OBJ",3,"keine Tendenz",8726,426265,42
210,"t08_1",1,"t08","INSTR","PP>OBJ",2,"eher unnatürlich",9950,266422,21
212,"t08_1",1,"t08","INSTR","PP>OBJ",4,"eher natürlich",7750,441747,42
187,"t08_1",1,"t08","INSTR","PP>OBJ",4,"eher natürlich",11300,757343,95
185,"t08_1",1,"t08","INSTR","PP>OBJ",5,"vollkommen natürlich",13181,263410,30
167,"t08_1",1,"t08","INSTR","PP>OBJ",2,"eher unnatürlich",6937,446786,47
128,"t08_1",1,"t08","INSTR","PP>OBJ",4,"eher natürlich",10022,500389,43
199,"t08_1",1,"t08","INSTR","PP>OBJ",4,"eher natürlich",16303,257390,19
205,"t08_1",1,"t08","INSTR","PP>OBJ",4,"eher natürlich",6543,599868,58
147,"t08_1",1,"t08","INSTR","PP>OBJ",2,"eher unnatürlich",5547,357393,44
200,"t08_1",1,"t08","INSTR","PP>OBJ",2,"eher unnatürlich",15901,169838,13
168,"t08_1",1,"t08","INSTR","PP>OBJ",5,"vollkommen natürlich",7637,761217,83
158,"t08_1",1,"t08","INSTR","PP>OBJ",4,"eher natürlich",7166,952853,80
202,"t08_1",1,"t08","INSTR","PP>OBJ",4,"eher natürlich",12977,400687,43
206,"t08_1",1,"t08","INSTR","PP>OBJ",5,"vollkommen natürlich",8422,334317,34
138,"t08_1",1,"t08","INSTR","PP>OBJ",1,"vollkommen unnatürlich",23929,373322,46
132,"t08_1",1,"t08","INSTR","PP>OBJ",3,"keine Tendenz",6717,752275,105
211,"t08_1",1,"t08","INSTR","PP>OBJ",5,"vollkommen natürlich",6677,460916,67
208,"t08_1",1,"t08","INSTR","PP>OBJ",5,"vollkommen natürlich",6990,1170557,100
215,"t08_1",1,"t08","INSTR","PP>OBJ",5,"vollkommen natürlich",6437,211286,27
157,"t08_2",2,"t08","INSTR","OBJ>PP",4,"eher natürlich",10899,125635,8
163,"t08_2",2,"t08","INSTR","OBJ>PP",1,"vollkommen unnatürlich",7193,322084,43
178,"t08_2",2,"t08","INSTR","OBJ>PP",5,"vollkommen natürlich",5014,378094,53
172,"t08_2",2,"t08","INSTR","OBJ>PP",4,"eher natürlich",9826,316836,27
174,"t08_2",2,"t08","INSTR","OBJ>PP",4,"eher natürlich",7425,111449,11
166,"t08_2",2,"t08","INSTR","OBJ>PP",5,"vollkommen natürlich",4360,323525,54
148,"t08_2",2,"t08","INSTR","OBJ>PP",1,"vollkommen unnatürlich",12942,659447,35
176,"t08_2",2,"t08","INSTR","OBJ>PP",2,"eher unnatürlich",10085,778449,90
169,"t08_2",2,"t08","INSTR","OBJ>PP",5,"vollkommen natürlich",4514,313445,50
161,"t08_2",2,"t08","INSTR","OBJ>PP",3,"keine Tendenz",10001,373935,35
190,"t08_2",2,"t08","INSTR","OBJ>PP",4,"eher natürlich",5259,99184,13
131,"t08_2",2,"t08","INSTR","OBJ>PP",5,"vollkommen natürlich",10085,99401,9
133,"t08_2",2,"t08","INSTR","OBJ>PP",3,"keine Tendenz",17695,799274,63
184,"t08_2",2,"t08","INSTR","OBJ>PP",4,"eher natürlich",7605,281779,23
193,"t08_2",2,"t08","INSTR","OBJ>PP",5,"vollkommen natürlich",10133,1179412,73
194,"t08_2",2,"t08","INSTR","OBJ>PP",5,"vollkommen natürlich",8663,112371,11
160,"t08_2",2,"t08","INSTR","OBJ>PP",4,"eher natürlich",4896,417646,59
165,"t08_2",2,"t08","INSTR","OBJ>PP",2,"eher unnatürlich",5410,594135,86
149,"t08_2",2,"t08","INSTR","OBJ>PP",4,"eher natürlich",10217,961958,67
135,"t08_2",2,"t08","INSTR","OBJ>PP",3,"keine Tendenz",7340,814348,99
150,"t08_2",2,"t08","INSTR","OBJ>PP",2,"eher unnatürlich",13210,108216,8
151,"t08_2",2,"t08","INSTR","OBJ>PP",4,"eher natürlich",10101,647944,78
182,"t08_2",2,"t08","INSTR","OBJ>PP",4,"eher natürlich",13701,114488,9
186,"t08_2",2,"t08","INSTR","OBJ>PP",4,"eher natürlich",6570,622293,92
162,"t08_2",2,"t08","INSTR","OBJ>PP",5,"vollkommen natürlich",5671,615182,67
196,"t08_2",2,"t08","INSTR","OBJ>PP",4,"eher natürlich",3482,359030,62
171,"t08_2",2,"t08","INSTR","OBJ>PP",4,"eher natürlich",5139,213153,21
170,"t08_2",2,"t08","INSTR","OBJ>PP",4,"eher natürlich",7151,212695,35
192,"t08_2",2,"t08","INSTR","OBJ>PP",3,"keine Tendenz",8286,1256859,94
175,"t08_2",2,"t08","INSTR","OBJ>PP",5,"vollkommen natürlich",8498,635575,75
191,"t08_2",2,"t08","INSTR","OBJ>PP",2,"eher unnatürlich",4649,839988,64
156,"t08_2",2,"t08","INSTR","OBJ>PP",1,"vollkommen unnatürlich",49130,225905,15
177,"t08_2",2,"t08","INSTR","OBJ>PP",4,"eher natürlich",6977,624472,62
139,"t08_2",2,"t08","INSTR","OBJ>PP",4,"eher natürlich",5383,1146108,97
134,"t08_2",2,"t08","INSTR","OBJ>PP",4,"eher natürlich",5954,732615,97
159,"t08_2",2,"t08","INSTR","OBJ>PP",4,"eher natürlich",5026,244637,35
192,"t09_1",1,"t09","INSTR","PP>OBJ",4,"eher natürlich",8382,1053151,68
196,"t09_1",1,"t09","INSTR","PP>OBJ",4,"eher natürlich",3694,216398,36
186,"t09_1",1,"t09","INSTR","PP>OBJ",2,"eher unnatürlich",7226,332590,47
175,"t09_1",1,"t09","INSTR","PP>OBJ",4,"eher natürlich",6695,238966,29
150,"t09_1",1,"t09","INSTR","PP>OBJ",4,"eher natürlich",14052,170921,11
176,"t09_1",1,"t09","INSTR","PP>OBJ",2,"eher unnatürlich",13244,64855,6
163,"t09_1",1,"t09","INSTR","PP>OBJ",2,"eher unnatürlich",5689,429628,59
171,"t09_1",1,"t09","INSTR","PP>OBJ",4,"eher natürlich",5990,128688,11
172,"t09_1",1,"t09","INSTR","PP>OBJ",3,"keine Tendenz",7615,886048,82
166,"t09_1",1,"t09","INSTR","PP>OBJ",5,"vollkommen natürlich",4498,147501,22
193,"t09_1",1,"t09","INSTR","PP>OBJ",5,"vollkommen natürlich",33792,569719,29
135,"t09_1",1,"t09","INSTR","PP>OBJ",4,"eher natürlich",6617,85147,10
149,"t09_1",1,"t09","INSTR","PP>OBJ",4,"eher natürlich",10146,1098356,83
131,"t09_1",1,"t09","INSTR","PP>OBJ",2,"eher unnatürlich",8060,76976,7
162,"t09_1",1,"t09","INSTR","PP>OBJ",5,"vollkommen natürlich",8800,216232,20
177,"t09_1",1,"t09","INSTR","PP>OBJ",4,"eher natürlich",7950,581377,59
161,"t09_1",1,"t09","INSTR","PP>OBJ",5,"vollkommen natürlich",15129,804675,71
157,"t09_1",1,"t09","INSTR","PP>OBJ",4,"eher natürlich",4553,546158,53
148,"t09_1",1,"t09","INSTR","PP>OBJ",5,"vollkommen natürlich",17197,581415,28
184,"t09_1",1,"t09","INSTR","PP>OBJ",4,"eher natürlich",6520,144073,13
178,"t09_1",1,"t09","INSTR","PP>OBJ",4,"eher natürlich",3955,554135,87
156,"t09_1",1,"t09","INSTR","PP>OBJ",4,"eher natürlich",5708,932548,94
170,"t09_1",1,"t09","INSTR","PP>OBJ",2,"eher unnatürlich",4207,95839,16
151,"t09_1",1,"t09","INSTR","PP>OBJ",4,"eher natürlich",6994,367214,44
190,"t09_1",1,"t09","INSTR","PP>OBJ",4,"eher natürlich",5571,296395,42
182,"t09_1",1,"t09","INSTR","PP>OBJ",4,"eher natürlich",6293,846139,89
169,"t09_1",1,"t09","INSTR","PP>OBJ",5,"vollkommen natürlich",4942,104768,13
134,"t09_1",1,"t09","INSTR","PP>OBJ",4,"eher natürlich",4973,640294,85
139,"t09_1",1,"t09","INSTR","PP>OBJ",4,"eher natürlich",8769,501789,46
160,"t09_1",1,"t09","INSTR","PP>OBJ",4,"eher natürlich",3655,200898,26
194,"t09_1",1,"t09","INSTR","PP>OBJ",5,"vollkommen natürlich",9114,69342,6
165,"t09_1",1,"t09","INSTR","PP>OBJ",4,"eher natürlich",8538,618407,90
174,"t09_1",1,"t09","INSTR","PP>OBJ",4,"eher natürlich",5576,289331,32
133,"t09_1",1,"t09","INSTR","PP>OBJ",3,"keine Tendenz",12183,1137358,94
159,"t09_1",1,"t09","INSTR","PP>OBJ",5,"vollkommen natürlich",4784,573230,92
191,"t09_1",1,"t09","INSTR","PP>OBJ",4,"eher natürlich",4151,641609,26
214,"t09_2",2,"t09","INSTR","OBJ>PP",3,"keine Tendenz",19334,417657,22
138,"t09_2",2,"t09","INSTR","OBJ>PP",3,"keine Tendenz",4590,332744,42
179,"t09_2",2,"t09","INSTR","OBJ>PP",4,"eher natürlich",10885,291134,32
167,"t09_2",2,"t09","INSTR","OBJ>PP",4,"eher natürlich",8584,814156,91
211,"t09_2",2,"t09","INSTR","OBJ>PP",4,"eher natürlich",9982,169615,23
183,"t09_2",2,"t09","INSTR","OBJ>PP",4,"eher natürlich",5732,1109350,78
215,"t09_2",2,"t09","INSTR","OBJ>PP",5,"vollkommen natürlich",6309,159431,20
181,"t09_2",2,"t09","INSTR","OBJ>PP",4,"eher natürlich",6379,571954,77
203,"t09_2",2,"t09","INSTR","OBJ>PP",4,"eher natürlich",89521,551551,61
197,"t09_2",2,"t09","INSTR","OBJ>PP",4,"eher natürlich",20550,440603,30
185,"t09_2",2,"t09","INSTR","OBJ>PP",5,"vollkommen natürlich",7071,366664,42
168,"t09_2",2,"t09","INSTR","OBJ>PP",4,"eher natürlich",8739,846369,94
213,"t09_2",2,"t09","INSTR","OBJ>PP",3,"keine Tendenz",16036,709368,60
128,"t09_2",2,"t09","INSTR","OBJ>PP",4,"eher natürlich",9723,838525,75
212,"t09_2",2,"t09","INSTR","OBJ>PP",5,"vollkommen natürlich",5592,635385,63
189,"t09_2",2,"t09","INSTR","OBJ>PP",4,"eher natürlich",7785,734166,67
201,"t09_2",2,"t09","INSTR","OBJ>PP",4,"eher natürlich",10839,544312,69
136,"t09_2",2,"t09","INSTR","OBJ>PP",5,"vollkommen natürlich",9212,534537,61
155,"t09_2",2,"t09","INSTR","OBJ>PP",4,"eher natürlich",8449,803818,69
208,"t09_2",2,"t09","INSTR","OBJ>PP",5,"vollkommen natürlich",8895,308733,23
210,"t09_2",2,"t09","INSTR","OBJ>PP",4,"eher natürlich",9205,759093,65
202,"t09_2",2,"t09","INSTR","OBJ>PP",5,"vollkommen natürlich",4466,203758,20
206,"t09_2",2,"t09","INSTR","OBJ>PP",4,"eher natürlich",6819,539314,58
158,"t09_2",2,"t09","INSTR","OBJ>PP",5,"vollkommen natürlich",7465,1161599,98
199,"t09_2",2,"t09","INSTR","OBJ>PP",5,"vollkommen natürlich",11942,1092765,81
204,"t09_2",2,"t09","INSTR","OBJ>PP",2,"eher unnatürlich",7143,228748,28
200,"t09_2",2,"t09","INSTR","OBJ>PP",5,"vollkommen natürlich",10245,249455,20
187,"t09_2",2,"t09","INSTR","OBJ>PP",5,"vollkommen natürlich",16948,171895,22
147,"t09_2",2,"t09","INSTR","OBJ>PP",4,"eher natürlich",4533,807039,104
209,"t09_2",2,"t09","INSTR","OBJ>PP",4,"eher natürlich",5779,749906,63
205,"t09_2",2,"t09","INSTR","OBJ>PP",4,"eher natürlich",9266,623654,61
137,"t09_2",2,"t09","INSTR","OBJ>PP",5,"vollkommen natürlich",3652,760675,91
132,"t09_2",2,"t09","INSTR","OBJ>PP",4,"eher natürlich",6459,532236,74
180,"t09_2",2,"t09","INSTR","OBJ>PP",5,"vollkommen natürlich",5550,386737,38
130,"t09_2",2,"t09","INSTR","OBJ>PP",4,"eher natürlich",10771,732009,58
209,"t10_1",1,"t10","INSTR","PP>OBJ",2,"eher unnatürlich",4192,893954,81
205,"t10_1",1,"t10","INSTR","PP>OBJ",4,"eher natürlich",13191,796057,81
130,"t10_1",1,"t10","INSTR","PP>OBJ",2,"eher unnatürlich",10261,1197675,101
187,"t10_1",1,"t10","INSTR","PP>OBJ",4,"eher natürlich",7683,53277,6
202,"t10_1",1,"t10","INSTR","PP>OBJ",3,"keine Tendenz",6895,904819,99
179,"t10_1",1,"t10","INSTR","PP>OBJ",2,"eher unnatürlich",8139,203614,22
189,"t10_1",1,"t10","INSTR","PP>OBJ",2,"eher unnatürlich",16989,258676,19
168,"t10_1",1,"t10","INSTR","PP>OBJ",5,"vollkommen natürlich",9609,103251,10
213,"t10_1",1,"t10","INSTR","PP>OBJ",4,"eher natürlich",22125,1109520,96
203,"t10_1",1,"t10","INSTR","PP>OBJ",2,"eher unnatürlich",7239,90316,11
167,"t10_1",1,"t10","INSTR","PP>OBJ",2,"eher unnatürlich",8679,274783,27
158,"t10_1",1,"t10","INSTR","PP>OBJ",5,"vollkommen natürlich",8304,1004517,85
214,"t10_1",1,"t10","INSTR","PP>OBJ",2,"eher unnatürlich",42734,333300,17
137,"t10_1",1,"t10","INSTR","PP>OBJ",4,"eher natürlich",6956,487172,61
215,"t10_1",1,"t10","INSTR","PP>OBJ",5,"vollkommen natürlich",7567,241426,31
200,"t10_1",1,"t10","INSTR","PP>OBJ",4,"eher natürlich",10942,130647,10
210,"t10_1",1,"t10","INSTR","PP>OBJ",4,"eher natürlich",6714,444581,37
181,"t10_1",1,"t10","INSTR","PP>OBJ",2,"eher unnatürlich",11805,688730,91
211,"t10_1",1,"t10","INSTR","PP>OBJ",2,"eher unnatürlich",7359,203566,28
206,"t10_1",1,"t10","INSTR","PP>OBJ",2,"eher unnatürlich",9125,706556,77
128,"t10_1",1,"t10","INSTR","PP>OBJ",4,"eher natürlich",7979,961586,85
132,"t10_1",1,"t10","INSTR","PP>OBJ",4,"eher natürlich",6061,504938,70
180,"t10_1",1,"t10","INSTR","PP>OBJ",4,"eher natürlich",6582,283504,26
204,"t10_1",1,"t10","INSTR","PP>OBJ",2,"eher unnatürlich",3485,523550,61
155,"t10_1",1,"t10","INSTR","PP>OBJ",5,"vollkommen natürlich",10258,1135221,92
138,"t10_1",1,"t10","INSTR","PP>OBJ",2,"eher unnatürlich",7386,566838,70
201,"t10_1",1,"t10","INSTR","PP>OBJ",1,"vollkommen unnatürlich",5940,634207,81
147,"t10_1",1,"t10","INSTR","PP>OBJ",2,"eher unnatürlich",12207,380619,47
208,"t10_1",1,"t10","INSTR","PP>OBJ",5,"vollkommen natürlich",9361,1127319,95
212,"t10_1",1,"t10","INSTR","PP>OBJ",5,"vollkommen natürlich",7167,281269,23
185,"t10_1",1,"t10","INSTR","PP>OBJ",4,"eher natürlich",3157,808183,87
199,"t10_1",1,"t10","INSTR","PP>OBJ",5,"vollkommen natürlich",17950,835893,61
197,"t10_1",1,"t10","INSTR","PP>OBJ",4,"eher natürlich",9945,745763,59
136,"t10_1",1,"t10","INSTR","PP>OBJ",5,"vollkommen natürlich",12318,736060,84
183,"t10_1",1,"t10","INSTR","PP>OBJ",4,"eher natürlich",9880,952064,65
169,"t10_2",2,"t10","INSTR","OBJ>PP",5,"vollkommen natürlich",6270,189491,27
150,"t10_2",2,"t10","INSTR","OBJ>PP",4,"eher natürlich",8970,1078288,99
156,"t10_2",2,"t10","INSTR","OBJ>PP",4,"eher natürlich",5830,971460,99
184,"t10_2",2,"t10","INSTR","OBJ>PP",4,"eher natürlich",10400,439499,39
160,"t10_2",2,"t10","INSTR","OBJ>PP",4,"eher natürlich",6449,580578,82
163,"t10_2",2,"t10","INSTR","OBJ>PP",4,"eher natürlich",10239,113877,14
193,"t10_2",2,"t10","INSTR","OBJ>PP",5,"vollkommen natürlich",11966,784267,46
196,"t10_2",2,"t10","INSTR","OBJ>PP",4,"eher natürlich",5770,306516,53
151,"t10_2",2,"t10","INSTR","OBJ>PP",4,"eher natürlich",11610,280105,34
175,"t10_2",2,"t10","INSTR","OBJ>PP",3,"keine Tendenz",11834,377360,45
162,"t10_2",2,"t10","INSTR","OBJ>PP",4,"eher natürlich",13780,349710,35
190,"t10_2",2,"t10","INSTR","OBJ>PP",2,"eher unnatürlich",5933,474993,67
165,"t10_2",2,"t10","INSTR","OBJ>PP",2,"eher unnatürlich",6985,705625,104
182,"t10_2",2,"t10","INSTR","OBJ>PP",4,"eher natürlich",9237,423442,40
177,"t10_2",2,"t10","INSTR","OBJ>PP",2,"eher unnatürlich",7165,766394,84
139,"t10_2",2,"t10","INSTR","OBJ>PP",4,"eher natürlich",7579,235558,23
133,"t10_2",2,"t10","INSTR","OBJ>PP",3,"keine Tendenz",8499,1200241,100
149,"t10_2",2,"t10","INSTR","OBJ>PP",4,"eher natürlich",8210,534484,28
161,"t10_2",2,"t10","INSTR","OBJ>PP",4,"eher natürlich",14555,832514,73
131,"t10_2",2,"t10","INSTR","OBJ>PP",3,"keine Tendenz",10503,606407,71
157,"t10_2",2,"t10","INSTR","OBJ>PP",4,"eher natürlich",5578,911704,95
186,"t10_2",2,"t10","INSTR","OBJ>PP",2,"eher unnatürlich",6946,603899,89
172,"t10_2",2,"t10","INSTR","OBJ>PP",2,"eher unnatürlich",8308,591087,54
148,"t10_2",2,"t10","INSTR","OBJ>PP",2,"eher unnatürlich",18389,82352,6
159,"t10_2",2,"t10","INSTR","OBJ>PP",4,"eher natürlich",5936,607219,97
178,"t10_2",2,"t10","INSTR","OBJ>PP",4,"eher natürlich",5830,620531,100
171,"t10_2",2,"t10","INSTR","OBJ>PP",3,"keine Tendenz",13630,421910,45
170,"t10_2",2,"t10","INSTR","OBJ>PP",2,"eher unnatürlich",8095,424494,72
166,"t10_2",2,"t10","INSTR","OBJ>PP",5,"vollkommen natürlich",4240,571773,87
135,"t10_2",2,"t10","INSTR","OBJ>PP",2,"eher unnatürlich",6818,187008,23
174,"t10_2",2,"t10","INSTR","OBJ>PP",4,"eher natürlich",4921,795012,104
134,"t10_2",2,"t10","INSTR","OBJ>PP",2,"eher unnatürlich",7247,487462,63
192,"t10_2",2,"t10","INSTR","OBJ>PP",4,"eher natürlich",7349,205114,21
194,"t10_2",2,"t10","INSTR","OBJ>PP",5,"vollkommen natürlich",6757,246128,27
191,"t10_2",2,"t10","INSTR","OBJ>PP",3,"keine Tendenz",4237,977343,91
176,"t10_2",2,"t10","INSTR","OBJ>PP",4,"eher natürlich",9222,732501,84
169,"t11_1",1,"t11","INSTR","PP>OBJ",4,"eher natürlich",6612,576495,101
172,"t11_1",1,"t11","INSTR","PP>OBJ",2,"eher unnatürlich",10933,257340,21
162,"t11_1",1,"t11","INSTR","PP>OBJ",5,"vollkommen natürlich",6424,882973,104
157,"t11_1",1,"t11","INSTR","PP>OBJ",4,"eher natürlich",12789,457486,44
193,"t11_1",1,"t11","INSTR","PP>OBJ",5,"vollkommen natürlich",15292,613306,33
133,"t11_1",1,"t11","INSTR","PP>OBJ",3,"keine Tendenz",14746,956973,78
166,"t11_1",1,"t11","INSTR","PP>OBJ",5,"vollkommen natürlich",5423,668870,104
151,"t11_1",1,"t11","INSTR","PP>OBJ",2,"eher unnatürlich",11821,183471,22
194,"t11_1",1,"t11","INSTR","PP>OBJ",5,"vollkommen natürlich",7881,170689,18
148,"t11_1",1,"t11","INSTR","PP>OBJ",2,"eher unnatürlich",24494,181672,11
160,"t11_1",1,"t11","INSTR","PP>OBJ",4,"eher natürlich",9588,106297,12
131,"t11_1",1,"t11","INSTR","PP>OBJ",2,"eher unnatürlich",5848,788616,93
163,"t11_1",1,"t11","INSTR","PP>OBJ",2,"eher unnatürlich",8711,679749,94
156,"t11_1",1,"t11","INSTR","PP>OBJ",1,"vollkommen unnatürlich",4477,429371,37
161,"t11_1",1,"t11","INSTR","PP>OBJ",5,"vollkommen natürlich",9818,586385,54
135,"t11_1",1,"t11","INSTR","PP>OBJ",3,"keine Tendenz",9088,145166,17
149,"t11_1",1,"t11","INSTR","PP>OBJ",1,"vollkommen unnatürlich",10722,1204068,96
190,"t11_1",1,"t11","INSTR","PP>OBJ",4,"eher natürlich",6955,710969,103
196,"t11_1",1,"t11","INSTR","PP>OBJ",4,"eher natürlich",5590,120393,17
165,"t11_1",1,"t11","INSTR","PP>OBJ",4,"eher natürlich",4984,471341,64
192,"t11_1",1,"t11","INSTR","PP>OBJ",3,"keine Tendenz",8395,1299836,98
134,"t11_1",1,"t11","INSTR","PP>OBJ",4,"eher natürlich",6027,341106,44
150,"t11_1",1,"t11","INSTR","PP>OBJ",4,"eher natürlich",12798,777135,66
175,"t11_1",1,"t11","INSTR","PP>OBJ",2,"eher unnatürlich",9313,585620,68
184,"t11_1",1,"t11","INSTR","PP>OBJ",1,"vollkommen unnatürlich",6349,722554,74
182,"t11_1",1,"t11","INSTR","PP>OBJ",5,"vollkommen natürlich",6197,810706,84
191,"t11_1",1,"t11","INSTR","PP>OBJ",4,"eher natürlich",4178,692004,35
186,"t11_1",1,"t11","INSTR","PP>OBJ",2,"eher unnatürlich",9915,95858,11
174,"t11_1",1,"t11","INSTR","PP>OBJ",4,"eher natürlich",6816,662069,82
177,"t11_1",1,"t11","INSTR","PP>OBJ",3,"keine Tendenz",6130,554378,56
178,"t11_1",1,"t11","INSTR","PP>OBJ",5,"vollkommen natürlich",8451,272707,36
159,"t11_1",1,"t11","INSTR","PP>OBJ",5,"vollkommen natürlich",5239,149273,20
171,"t11_1",1,"t11","INSTR","PP>OBJ",4,"eher natürlich",8275,322455,34
176,"t11_1",1,"t11","INSTR","PP>OBJ",4,"eher natürlich",11363,666371,76
170,"t11_1",1,"t11","INSTR","PP>OBJ",2,"eher unnatürlich",7702,201174,33
139,"t11_1",1,"t11","INSTR","PP>OBJ",2,"eher unnatürlich",8405,554641,51
147,"t11_2",2,"t11","INSTR","OBJ>PP",3,"keine Tendenz",8885,538356,65
185,"t11_2",2,"t11","INSTR","OBJ>PP",4,"eher natürlich",14770,236387,27
210,"t11_2",2,"t11","INSTR","OBJ>PP",5,"vollkommen natürlich",13028,930010,81
128,"t11_2",2,"t11","INSTR","OBJ>PP",4,"eher natürlich",11495,348979,29
209,"t11_2",2,"t11","INSTR","OBJ>PP",2,"eher unnatürlich",18539,546930,44
167,"t11_2",2,"t11","INSTR","OBJ>PP",4,"eher natürlich",13744,131106,12
211,"t11_2",2,"t11","INSTR","OBJ>PP",2,"eher unnatürlich",4533,213866,30
200,"t11_2",2,"t11","INSTR","OBJ>PP",5,"vollkommen natürlich",13709,230006,18
189,"t11_2",2,"t11","INSTR","OBJ>PP",2,"eher unnatürlich",15362,224108,16
202,"t11_2",2,"t11","INSTR","OBJ>PP",4,"eher natürlich",9317,162865,15
206,"t11_2",2,"t11","INSTR","OBJ>PP",5,"vollkommen natürlich",10681,130138,11
205,"t11_2",2,"t11","INSTR","OBJ>PP",2,"eher unnatürlich",9132,177343,15
215,"t11_2",2,"t11","INSTR","OBJ>PP",5,"vollkommen natürlich",5792,753566,96
168,"t11_2",2,"t11","INSTR","OBJ>PP",4,"eher natürlich",11175,885305,99
137,"t11_2",2,"t11","INSTR","OBJ>PP",5,"vollkommen natürlich",6596,473933,59
155,"t11_2",2,"t11","INSTR","OBJ>PP",5,"vollkommen natürlich",10779,226028,20
183,"t11_2",2,"t11","INSTR","OBJ>PP",4,"eher natürlich",16505,355113,24
138,"t11_2",2,"t11","INSTR","OBJ>PP",2,"eher unnatürlich",8813,140623,18
214,"t11_2",2,"t11","INSTR","OBJ>PP",3,"keine Tendenz",10893,2267459,91
132,"t11_2",2,"t11","INSTR","OBJ>PP",2,"eher unnatürlich",6940,678219,95
179,"t11_2",2,"t11","INSTR","OBJ>PP",4,"eher natürlich",7646,362372,40
136,"t11_2",2,"t11","INSTR","OBJ>PP",4,"eher natürlich",7937,317191,35
201,"t11_2",2,"t11","INSTR","OBJ>PP",2,"eher unnatürlich",9117,329471,41
212,"t11_2",2,"t11","INSTR","OBJ>PP",5,"vollkommen natürlich",12002,324347,28
208,"t11_2",2,"t11","INSTR","OBJ>PP",4,"eher natürlich",10775,971064,80
181,"t11_2",2,"t11","INSTR","OBJ>PP",2,"eher unnatürlich",6732,331694,40
187,"t11_2",2,"t11","INSTR","OBJ>PP",5,"vollkommen natürlich",10048,352664,43
158,"t11_2",2,"t11","INSTR","OBJ>PP",5,"vollkommen natürlich",7824,474037,40
203,"t11_2",2,"t11","INSTR","OBJ>PP",5,"vollkommen natürlich",7468,171636,24
197,"t11_2",2,"t11","INSTR","OBJ>PP",4,"eher natürlich",13401,609231,44
180,"t11_2",2,"t11","INSTR","OBJ>PP",5,"vollkommen natürlich",6174,454656,46
130,"t11_2",2,"t11","INSTR","OBJ>PP",5,"vollkommen natürlich",11564,1020682,84
213,"t11_2",2,"t11","INSTR","OBJ>PP",3,"keine Tendenz",12292,885819,76
199,"t11_2",2,"t11","INSTR","OBJ>PP",5,"vollkommen natürlich",14631,1003220,74
214,"t12_1",1,"t12","INSTR","PP>OBJ",2,"eher unnatürlich",21871,206437,11
212,"t12_1",1,"t12","INSTR","PP>OBJ",5,"vollkommen natürlich",6811,349672,32
199,"t12_1",1,"t12","INSTR","PP>OBJ",4,"eher natürlich",17207,146022,11
209,"t12_1",1,"t12","INSTR","PP>OBJ",2,"eher unnatürlich",4880,985649,96
205,"t12_1",1,"t12","INSTR","PP>OBJ",3,"keine Tendenz",9052,101883,8
197,"t12_1",1,"t12","INSTR","PP>OBJ",5,"vollkommen natürlich",13990,253049,16
210,"t12_1",1,"t12","INSTR","PP>OBJ",4,"eher natürlich",8750,792446,68
147,"t12_1",1,"t12","INSTR","PP>OBJ",2,"eher unnatürlich",6160,131181,15
137,"t12_1",1,"t12","INSTR","PP>OBJ",4,"eher natürlich",8534,445136,55
167,"t12_1",1,"t12","INSTR","PP>OBJ",2,"eher unnatürlich",6102,311725,31
202,"t12_1",1,"t12","INSTR","PP>OBJ",2,"eher unnatürlich",9897,371173,40
132,"t12_1",1,"t12","INSTR","PP>OBJ",2,"eher unnatürlich",8206,592220,83
200,"t12_1",1,"t12","INSTR","PP>OBJ",5,"vollkommen natürlich",6429,892445,78
185,"t12_1",1,"t12","INSTR","PP>OBJ",5,"vollkommen natürlich",12001,315178,35
181,"t12_1",1,"t12","INSTR","PP>OBJ",2,"eher unnatürlich",5941,587460,80
138,"t12_1",1,"t12","INSTR","PP>OBJ",3,"keine Tendenz",5179,686845,91
168,"t12_1",1,"t12","INSTR","PP>OBJ",2,"eher unnatürlich",11114,655634,67
211,"t12_1",1,"t12","INSTR","PP>OBJ",2,"eher unnatürlich",40005,550625,78
213,"t12_1",1,"t12","INSTR","PP>OBJ",4,"eher natürlich",15150,153108,11
158,"t12_1",1,"t12","INSTR","PP>OBJ",3,"keine Tendenz",7165,653832,53
208,"t12_1",1,"t12","INSTR","PP>OBJ",4,"eher natürlich",13024,366884,28
206,"t12_1",1,"t12","INSTR","PP>OBJ",4,"eher natürlich",7994,262740,26
215,"t12_1",1,"t12","INSTR","PP>OBJ",5,"vollkommen natürlich",6950,115341,13
128,"t12_1",1,"t12","INSTR","PP>OBJ",4,"eher natürlich",7479,315938,26
204,"t12_1",1,"t12","INSTR","PP>OBJ",2,"eher unnatürlich",3748,530597,63
189,"t12_1",1,"t12","INSTR","PP>OBJ",2,"eher unnatürlich",8745,280973,21
130,"t12_1",1,"t12","INSTR","PP>OBJ",5,"vollkommen natürlich",11992,904497,73
187,"t12_1",1,"t12","INSTR","PP>OBJ",4,"eher natürlich",5076,529960,65
136,"t12_1",1,"t12","INSTR","PP>OBJ",3,"keine Tendenz",6882,129098,15
155,"t12_1",1,"t12","INSTR","PP>OBJ",5,"vollkommen natürlich",15913,1085454,89
180,"t12_1",1,"t12","INSTR","PP>OBJ",4,"eher natürlich",7886,510840,53
179,"t12_1",1,"t12","INSTR","PP>OBJ",3,"keine Tendenz",8330,310235,34
203,"t12_1",1,"t12","INSTR","PP>OBJ",5,"vollkommen natürlich",4694,922640,105
201,"t12_1",1,"t12","INSTR","PP>OBJ",5,"vollkommen natürlich",8118,230432,28
183,"t12_1",1,"t12","INSTR","PP>OBJ",4,"eher natürlich",11458,1267788,95
170,"t12_2",2,"t12","INSTR","OBJ>PP",4,"eher natürlich",9390,501078,85
190,"t12_2",2,"t12","INSTR","OBJ>PP",4,"eher natürlich",4958,390011,55
159,"t12_2",2,"t12","INSTR","OBJ>PP",4,"eher natürlich",6809,538020,86
156,"t12_2",2,"t12","INSTR","OBJ>PP",4,"eher natürlich",8864,786620,76
176,"t12_2",2,"t12","INSTR","OBJ>PP",2,"eher unnatürlich",10593,617415,71
174,"t12_2",2,"t12","INSTR","OBJ>PP",4,"eher natürlich",6769,542599,63
163,"t12_2",2,"t12","INSTR","OBJ>PP",1,"vollkommen unnatürlich",8091,724906,99
162,"t12_2",2,"t12","INSTR","OBJ>PP",5,"vollkommen natürlich",9665,458017,47
177,"t12_2",2,"t12","INSTR","OBJ>PP",4,"eher natürlich",13745,96633,6
149,"t12_2",2,"t12","INSTR","OBJ>PP",4,"eher natürlich",7613,1273952,104
133,"t12_2",2,"t12","INSTR","OBJ>PP",2,"eher unnatürlich",11839,645971,50
192,"t12_2",2,"t12","INSTR","OBJ>PP",3,"keine Tendenz",7273,1108904,75
131,"t12_2",2,"t12","INSTR","OBJ>PP",2,"eher unnatürlich",7821,349535,39
175,"t12_2",2,"t12","INSTR","OBJ>PP",4,"eher natürlich",16275,484359,56
193,"t12_2",2,"t12","INSTR","OBJ>PP",5,"vollkommen natürlich",7911,1052223,60
172,"t12_2",2,"t12","INSTR","OBJ>PP",4,"eher natürlich",11346,286529,24
161,"t12_2",2,"t12","INSTR","OBJ>PP",4,"eher natürlich",12354,148781,13
169,"t12_2",2,"t12","INSTR","OBJ>PP",5,"vollkommen natürlich",4256,554465,97
150,"t12_2",2,"t12","INSTR","OBJ>PP",4,"eher natürlich",20244,954618,84
151,"t12_2",2,"t12","INSTR","OBJ>PP",4,"eher natürlich",8825,116653,13
157,"t12_2",2,"t12","INSTR","OBJ>PP",4,"eher natürlich",6635,243141,19
139,"t12_2",2,"t12","INSTR","OBJ>PP",2,"eher unnatürlich",7230,151678,14
148,"t12_2",2,"t12","INSTR","OBJ>PP",2,"eher unnatürlich",8642,1808678,89
178,"t12_2",2,"t12","INSTR","OBJ>PP",3,"keine Tendenz",5490,466945,70
186,"t12_2",2,"t12","INSTR","OBJ>PP",3,"keine Tendenz",7074,585604,86
182,"t12_2",2,"t12","INSTR","OBJ>PP",4,"eher natürlich",9196,397130,37
166,"t12_2",2,"t12","INSTR","OBJ>PP",5,"vollkommen natürlich",4816,532252,80
194,"t12_2",2,"t12","INSTR","OBJ>PP",5,"vollkommen natürlich",10499,213669,23
160,"t12_2",2,"t12","INSTR","OBJ>PP",4,"eher natürlich",5745,350381,49
184,"t12_2",2,"t12","INSTR","OBJ>PP",4,"eher natürlich",7342,871125,95
165,"t12_2",2,"t12","INSTR","OBJ>PP",2,"eher unnatürlich",5433,332831,42
134,"t12_2",2,"t12","INSTR","OBJ>PP",4,"eher natürlich",6575,767910,101
196,"t12_2",2,"t12","INSTR","OBJ>PP",4,"eher natürlich",3888,414612,74
135,"t12_2",2,"t12","INSTR","OBJ>PP",3,"keine Tendenz",10017,489712,61
171,"t12_2",2,"t12","INSTR","OBJ>PP",4,"eher natürlich",13405,662914,75
191,"t12_2",2,"t12","INSTR","OBJ>PP",3,"keine Tendenz",6390,627488,23
170,"t13_1",1,"t13","COM(O)","PP>OBJ",4,"eher natürlich",5486,525309,91
193,"t13_1",1,"t13","COM(O)","PP>OBJ",5,"vollkommen natürlich",9567,1136209,67
165,"t13_1",1,"t13","COM(O)","PP>OBJ",4,"eher natürlich",7236,666187,98
135,"t13_1",1,"t13","COM(O)","PP>OBJ",1,"vollkommen unnatürlich",9496,325614,41
160,"t13_1",1,"t13","COM(O)","PP>OBJ",4,"eher natürlich",6585,654022,92
133,"t13_1",1,"t13","COM(O)","PP>OBJ",2,"eher unnatürlich",6490,1116277,92
134,"t13_1",1,"t13","COM(O)","PP>OBJ",4,"eher natürlich",9866,270970,34
149,"t13_1",1,"t13","COM(O)","PP>OBJ",2,"eher unnatürlich",9206,273975,7
162,"t13_1",1,"t13","COM(O)","PP>OBJ",5,"vollkommen natürlich",12864,788018,89
148,"t13_1",1,"t13","COM(O)","PP>OBJ",4,"eher natürlich",11131,785071,46
150,"t13_1",1,"t13","COM(O)","PP>OBJ",4,"eher natürlich",12579,257834,18
190,"t13_1",1,"t13","COM(O)","PP>OBJ",3,"keine Tendenz",5748,690305,100
169,"t13_1",1,"t13","COM(O)","PP>OBJ",2,"eher unnatürlich",5277,437743,75
163,"t13_1",1,"t13","COM(O)","PP>OBJ",4,"eher natürlich",7748,518515,72
182,"t13_1",1,"t13","COM(O)","PP>OBJ",4,"eher natürlich",7062,595934,57
177,"t13_1",1,"t13","COM(O)","PP>OBJ",4,"eher natürlich",4848,791642,87
194,"t13_1",1,"t13","COM(O)","PP>OBJ",4,"eher natürlich",6762,905533,100
191,"t13_1",1,"t13","COM(O)","PP>OBJ",3,"keine Tendenz",5087,924508,81
171,"t13_1",1,"t13","COM(O)","PP>OBJ",2,"eher unnatürlich",7904,615823,69
178,"t13_1",1,"t13","COM(O)","PP>OBJ",3,"keine Tendenz",6927,450007,67
161,"t13_1",1,"t13","COM(O)","PP>OBJ",3,"keine Tendenz",9916,302181,27
166,"t13_1",1,"t13","COM(O)","PP>OBJ",4,"eher natürlich",7907,346892,57
157,"t13_1",1,"t13","COM(O)","PP>OBJ",4,"eher natürlich",5566,526989,50
174,"t13_1",1,"t13","COM(O)","PP>OBJ",4,"eher natürlich",8811,350101,39
151,"t13_1",1,"t13","COM(O)","PP>OBJ",2,"eher unnatürlich",13158,828830,99
176,"t13_1",1,"t13","COM(O)","PP>OBJ",2,"eher unnatürlich",9638,595226,68
172,"t13_1",1,"t13","COM(O)","PP>OBJ",3,"keine Tendenz",13237,174985,13
192,"t13_1",1,"t13","COM(O)","PP>OBJ",4,"eher natürlich",10144,1003491,63
196,"t13_1",1,"t13","COM(O)","PP>OBJ",4,"eher natürlich",4248,166036,26
139,"t13_1",1,"t13","COM(O)","PP>OBJ",4,"eher natürlich",25877,1189127,100
186,"t13_1",1,"t13","COM(O)","PP>OBJ",2,"eher unnatürlich",4971,439236,62
159,"t13_1",1,"t13","COM(O)","PP>OBJ",4,"eher natürlich",4242,262297,38
131,"t13_1",1,"t13","COM(O)","PP>OBJ",4,"eher natürlich",7462,208621,21
156,"t13_1",1,"t13","COM(O)","PP>OBJ",4,"eher natürlich",9965,595986,54
184,"t13_1",1,"t13","COM(O)","PP>OBJ",4,"eher natürlich",6425,595239,58
175,"t13_1",1,"t13","COM(O)","PP>OBJ",5,"vollkommen natürlich",5703,755745,93
179,"t13_2",2,"t13","COM(O)","OBJ>PP",3,"keine Tendenz",12190,179984,19
138,"t13_2",2,"t13","COM(O)","OBJ>PP",4,"eher natürlich",17199,216186,26
197,"t13_2",2,"t13","COM(O)","OBJ>PP",5,"vollkommen natürlich",10659,353571,23
206,"t13_2",2,"t13","COM(O)","OBJ>PP",4,"eher natürlich",12037,761271,85
187,"t13_2",2,"t13","COM(O)","OBJ>PP",4,"eher natürlich",6255,716557,90
180,"t13_2",2,"t13","COM(O)","OBJ>PP",3,"keine Tendenz",10110,637673,60
199,"t13_2",2,"t13","COM(O)","OBJ>PP",4,"eher natürlich",18975,1038493,77
203,"t13_2",2,"t13","COM(O)","OBJ>PP",5,"vollkommen natürlich",8029,817585,89
167,"t13_2",2,"t13","COM(O)","OBJ>PP",4,"eher natürlich",10121,424976,44
155,"t13_2",2,"t13","COM(O)","OBJ>PP",5,"vollkommen natürlich",8001,548422,46
136,"t13_2",2,"t13","COM(O)","OBJ>PP",2,"eher unnatürlich",7565,476614,54
214,"t13_2",2,"t13","COM(O)","OBJ>PP",4,"eher natürlich",13482,249397,14
130,"t13_2",2,"t13","COM(O)","OBJ>PP",4,"eher natürlich",9956,529249,40
168,"t13_2",2,"t13","COM(O)","OBJ>PP",5,"vollkommen natürlich",8301,263854,26
137,"t13_2",2,"t13","COM(O)","OBJ>PP",5,"vollkommen natürlich",21262,831767,98
147,"t13_2",2,"t13","COM(O)","OBJ>PP",2,"eher unnatürlich",7336,272544,34
208,"t13_2",2,"t13","COM(O)","OBJ>PP",2,"eher unnatürlich",10738,610814,46
211,"t13_2",2,"t13","COM(O)","OBJ>PP",2,"eher unnatürlich",6001,609551,87
128,"t13_2",2,"t13","COM(O)","OBJ>PP",4,"eher natürlich",12422,381758,31
205,"t13_2",2,"t13","COM(O)","OBJ>PP",4,"eher natürlich",12727,335282,31
213,"t13_2",2,"t13","COM(O)","OBJ>PP",4,"eher natürlich",8545,1193782,104
185,"t13_2",2,"t13","COM(O)","OBJ>PP",4,"eher natürlich",11599,896405,99
189,"t13_2",2,"t13","COM(O)","OBJ>PP",4,"eher natürlich",10653,446157,37
201,"t13_2",2,"t13","COM(O)","OBJ>PP",5,"vollkommen natürlich",6154,482512,62
132,"t13_2",2,"t13","COM(O)","OBJ>PP",2,"eher unnatürlich",7271,312059,41
183,"t13_2",2,"t13","COM(O)","OBJ>PP",4,"eher natürlich",8748,1239506,91
158,"t13_2",2,"t13","COM(O)","OBJ>PP",4,"eher natürlich",9505,436769,35
200,"t13_2",2,"t13","COM(O)","OBJ>PP",5,"vollkommen natürlich",10278,400967,35
212,"t13_2",2,"t13","COM(O)","OBJ>PP",5,"vollkommen natürlich",7194,561083,53
181,"t13_2",2,"t13","COM(O)","OBJ>PP",4,"eher natürlich",9645,224857,29
215,"t13_2",2,"t13","COM(O)","OBJ>PP",5,"vollkommen natürlich",6802,541435,67
209,"t13_2",2,"t13","COM(O)","OBJ>PP",1,"vollkommen unnatürlich",6419,426306,33
210,"t13_2",2,"t13","COM(O)","OBJ>PP",5,"vollkommen natürlich",11551,1078191,95
202,"t13_2",2,"t13","COM(O)","OBJ>PP",4,"eher natürlich",6445,575462,64
179,"t14_1",1,"t14","COM(O)","PP>OBJ",2,"eher unnatürlich",9808,112007,11
130,"t14_1",1,"t14","COM(O)","PP>OBJ",4,"eher natürlich",9291,637538,49
212,"t14_1",1,"t14","COM(O)","PP>OBJ",5,"vollkommen natürlich",7123,306487,26
183,"t14_1",1,"t14","COM(O)","PP>OBJ",1,"vollkommen unnatürlich",40601,287145,17
158,"t14_1",1,"t14","COM(O)","PP>OBJ",4,"eher natürlich",13132,893832,76
168,"t14_1",1,"t14","COM(O)","PP>OBJ",4,"eher natürlich",7836,823690,91
138,"t14_1",1,"t14","COM(O)","PP>OBJ",1,"vollkommen unnatürlich",9738,125919,16
215,"t14_1",1,"t14","COM(O)","PP>OBJ",5,"vollkommen natürlich",6883,698109,88
209,"t14_1",1,"t14","COM(O)","PP>OBJ",1,"vollkommen unnatürlich",8450,472669,38
200,"t14_1",1,"t14","COM(O)","PP>OBJ",4,"eher natürlich",13662,1148222,102
180,"t14_1",1,"t14","COM(O)","PP>OBJ",3,"keine Tendenz",13974,810049,77
202,"t14_1",1,"t14","COM(O)","PP>OBJ",2,"eher unnatürlich",10353,357218,38
203,"t14_1",1,"t14","COM(O)","PP>OBJ",3,"keine Tendenz",5566,212427,28
199,"t14_1",1,"t14","COM(O)","PP>OBJ",4,"eher natürlich",16271,1069748,79
210,"t14_1",1,"t14","COM(O)","PP>OBJ",2,"eher unnatürlich",8133,240469,19
147,"t14_1",1,"t14","COM(O)","PP>OBJ",2,"eher unnatürlich",6474,253789,31
201,"t14_1",1,"t14","COM(O)","PP>OBJ",2,"eher unnatürlich",7787,807288,100
197,"t14_1",1,"t14","COM(O)","PP>OBJ",4,"eher natürlich",9387,1073235,95
214,"t14_1",1,"t14","COM(O)","PP>OBJ",3,"keine Tendenz",82613,1876308,80
187,"t14_1",1,"t14","COM(O)","PP>OBJ",4,"eher natürlich",7120,601050,75
189,"t14_1",1,"t14","COM(O)","PP>OBJ",2,"eher unnatürlich",8058,344116,27
206,"t14_1",1,"t14","COM(O)","PP>OBJ",4,"eher natürlich",9636,857308,98
136,"t14_1",1,"t14","COM(O)","PP>OBJ",4,"eher natürlich",7615,708638,81
155,"t14_1",1,"t14","COM(O)","PP>OBJ",5,"vollkommen natürlich",7007,964349,83
132,"t14_1",1,"t14","COM(O)","PP>OBJ",4,"eher natürlich",6142,258235,34
208,"t14_1",1,"t14","COM(O)","PP>OBJ",4,"eher natürlich",9668,757942,60
167,"t14_1",1,"t14","COM(O)","PP>OBJ",2,"eher unnatürlich",6875,924475,105
181,"t14_1",1,"t14","COM(O)","PP>OBJ",4,"eher natürlich",6313,146047,18
205,"t14_1",1,"t14","COM(O)","PP>OBJ",4,"eher natürlich",9892,356492,33
128,"t14_1",1,"t14","COM(O)","PP>OBJ",3,"keine Tendenz",15537,444479,37
137,"t14_1",1,"t14","COM(O)","PP>OBJ",5,"vollkommen natürlich",6317,408133,51
213,"t14_1",1,"t14","COM(O)","PP>OBJ",4,"eher natürlich",11577,749001,64
211,"t14_1",1,"t14","COM(O)","PP>OBJ",3,"keine Tendenz",6557,224904,32
185,"t14_1",1,"t14","COM(O)","PP>OBJ",4,"eher natürlich",5050,830318,91
139,"t14_2",2,"t14","COM(O)","OBJ>PP",4,"eher natürlich",9554,208068,20
177,"t14_2",2,"t14","COM(O)","OBJ>PP",4,"eher natürlich",5089,917185,103
176,"t14_2",2,"t14","COM(O)","OBJ>PP",4,"eher natürlich",16780,869571,99
160,"t14_2",2,"t14","COM(O)","OBJ>PP",4,"eher natürlich",4117,630684,89
194,"t14_2",2,"t14","COM(O)","OBJ>PP",4,"eher natürlich",7749,460717,51
156,"t14_2",2,"t14","COM(O)","OBJ>PP",4,"eher natürlich",11754,510854,45
159,"t14_2",2,"t14","COM(O)","OBJ>PP",2,"eher unnatürlich",7186,97714,12
163,"t14_2",2,"t14","COM(O)","OBJ>PP",3,"keine Tendenz",9556,56278,7
186,"t14_2",2,"t14","COM(O)","OBJ>PP",2,"eher unnatürlich",5030,694411,105
178,"t14_2",2,"t14","COM(O)","OBJ>PP",5,"vollkommen natürlich",4824,233644,29
196,"t14_2",2,"t14","COM(O)","OBJ>PP",4,"eher natürlich",3459,569506,103
162,"t14_2",2,"t14","COM(O)","OBJ>PP",5,"vollkommen natürlich",4747,516939,55
192,"t14_2",2,"t14","COM(O)","OBJ>PP",5,"vollkommen natürlich",5863,1172182,84
172,"t14_2",2,"t14","COM(O)","OBJ>PP",3,"keine Tendenz",26801,817943,74
148,"t14_2",2,"t14","COM(O)","OBJ>PP",4,"eher natürlich",38445,1863063,92
193,"t14_2",2,"t14","COM(O)","OBJ>PP",4,"eher natürlich",7806,1552968,103
165,"t14_2",2,"t14","COM(O)","OBJ>PP",2,"eher unnatürlich",4520,500021,70
171,"t14_2",2,"t14","COM(O)","OBJ>PP",4,"eher natürlich",11145,281163,29
170,"t14_2",2,"t14","COM(O)","OBJ>PP",2,"eher unnatürlich",4599,341846,58
134,"t14_2",2,"t14","COM(O)","OBJ>PP",4,"eher natürlich",7835,430161,56
157,"t14_2",2,"t14","COM(O)","OBJ>PP",4,"eher natürlich",7952,205780,14
150,"t14_2",2,"t14","COM(O)","OBJ>PP",4,"eher natürlich",18306,735602,62
190,"t14_2",2,"t14","COM(O)","OBJ>PP",3,"keine Tendenz",7983,580739,83
191,"t14_2",2,"t14","COM(O)","OBJ>PP",3,"keine Tendenz",3789,887656,74
182,"t14_2",2,"t14","COM(O)","OBJ>PP",4,"eher natürlich",6494,543850,51
184,"t14_2",2,"t14","COM(O)","OBJ>PP",4,"eher natürlich",6850,823451,89
151,"t14_2",2,"t14","COM(O)","OBJ>PP",2,"eher unnatürlich",6346,739559,88
166,"t14_2",2,"t14","COM(O)","OBJ>PP",5,"vollkommen natürlich",14592,388237,62
174,"t14_2",2,"t14","COM(O)","OBJ>PP",4,"eher natürlich",6099,678728,85
131,"t14_2",2,"t14","COM(O)","OBJ>PP",4,"eher natürlich",6100,834314,101
133,"t14_2",2,"t14","COM(O)","OBJ>PP",4,"eher natürlich",11151,326186,25
135,"t14_2",2,"t14","COM(O)","OBJ>PP",4,"eher natürlich",6940,692186,84
161,"t14_2",2,"t14","COM(O)","OBJ>PP",4,"eher natürlich",19500,755729,67
149,"t14_2",2,"t14","COM(O)","OBJ>PP",4,"eher natürlich",11303,1224992,98
169,"t14_2",2,"t14","COM(O)","OBJ>PP",5,"vollkommen natürlich",4711,230735,35
175,"t14_2",2,"t14","COM(O)","OBJ>PP",4,"eher natürlich",7938,288059,35
160,"t15_1",1,"t15","COM(O)","PP>OBJ",4,"eher natürlich",4507,453116,64
182,"t15_1",1,"t15","COM(O)","PP>OBJ",3,"keine Tendenz",7901,695026,69
163,"t15_1",1,"t15","COM(O)","PP>OBJ",2,"eher unnatürlich",8460,261144,35
191,"t15_1",1,"t15","COM(O)","PP>OBJ",3,"keine Tendenz",5164,997372,95
169,"t15_1",1,"t15","COM(O)","PP>OBJ",2,"eher unnatürlich",4778,469667,81
131,"t15_1",1,"t15","COM(O)","PP>OBJ",4,"eher natürlich",8013,861416,105
166,"t15_1",1,"t15","COM(O)","PP>OBJ",5,"vollkommen natürlich",4726,624723,96
139,"t15_1",1,"t15","COM(O)","PP>OBJ",2,"eher unnatürlich",8166,92203,8
176,"t15_1",1,"t15","COM(O)","PP>OBJ",5,"vollkommen natürlich",7428,434494,46
161,"t15_1",1,"t15","COM(O)","PP>OBJ",2,"eher unnatürlich",13353,1141897,96
134,"t15_1",1,"t15","COM(O)","PP>OBJ",4,"eher natürlich",4807,583543,76
159,"t15_1",1,"t15","COM(O)","PP>OBJ",1,"vollkommen unnatürlich",8720,388862,60
165,"t15_1",1,"t15","COM(O)","PP>OBJ",4,"eher natürlich",9396,576193,82
149,"t15_1",1,"t15","COM(O)","PP>OBJ",4,"eher natürlich",11421,1168561,92
190,"t15_1",1,"t15","COM(O)","PP>OBJ",2,"eher unnatürlich",10615,361876,51
174,"t15_1",1,"t15","COM(O)","PP>OBJ",4,"eher natürlich",6515,519664,60
172,"t15_1",1,"t15","COM(O)","PP>OBJ",3,"keine Tendenz",9287,724842,68
178,"t15_1",1,"t15","COM(O)","PP>OBJ",4,"eher natürlich",4602,411073,59
194,"t15_1",1,"t15","COM(O)","PP>OBJ",4,"eher natürlich",6761,332088,37
135,"t15_1",1,"t15","COM(O)","PP>OBJ",1,"vollkommen unnatürlich",7933,290468,36
150,"t15_1",1,"t15","COM(O)","PP>OBJ",2,"eher unnatürlich",6150,639271,54
177,"t15_1",1,"t15","COM(O)","PP>OBJ",4,"eher natürlich",4800,714368,77
133,"t15_1",1,"t15","COM(O)","PP>OBJ",2,"eher unnatürlich",5917,464075,37
157,"t15_1",1,"t15","COM(O)","PP>OBJ",4,"eher natürlich",5410,652968,65
151,"t15_1",1,"t15","COM(O)","PP>OBJ",2,"eher unnatürlich",7081,858261,102
186,"t15_1",1,"t15","COM(O)","PP>OBJ",2,"eher unnatürlich",5998,201474,27
162,"t15_1",1,"t15","COM(O)","PP>OBJ",5,"vollkommen natürlich",5416,605909,65
156,"t15_1",1,"t15","COM(O)","PP>OBJ",2,"eher unnatürlich",6072,997683,103
193,"t15_1",1,"t15","COM(O)","PP>OBJ",5,"vollkommen natürlich",7546,750921,43
148,"t15_1",1,"t15","COM(O)","PP>OBJ",4,"eher natürlich",19117,691935,37
184,"t15_1",1,"t15","COM(O)","PP>OBJ",2,"eher unnatürlich",17172,674321,68
192,"t15_1",1,"t15","COM(O)","PP>OBJ",5,"vollkommen natürlich",9351,1327724,101
196,"t15_1",1,"t15","COM(O)","PP>OBJ",2,"eher unnatürlich",6078,369381,64
171,"t15_1",1,"t15","COM(O)","PP>OBJ",4,"eher natürlich",6045,881306,101
175,"t15_1",1,"t15","COM(O)","PP>OBJ",3,"keine Tendenz",8225,328692,40
170,"t15_1",1,"t15","COM(O)","PP>OBJ",2,"eher unnatürlich",6670,439078,74
183,"t15_2",2,"t15","COM(O)","OBJ>PP",4,"eher natürlich",4942,1323952,102
213,"t15_2",2,"t15","COM(O)","OBJ>PP",4,"eher natürlich",9335,830650,72
132,"t15_2",2,"t15","COM(O)","OBJ>PP",2,"eher unnatürlich",6725,296339,39
187,"t15_2",2,"t15","COM(O)","OBJ>PP",4,"eher natürlich",8228,735692,93
180,"t15_2",2,"t15","COM(O)","OBJ>PP",3,"keine Tendenz",7534,930457,93
136,"t15_2",2,"t15","COM(O)","OBJ>PP",4,"eher natürlich",8445,509784,58
212,"t15_2",2,"t15","COM(O)","OBJ>PP",5,"vollkommen natürlich",6181,577678,56
147,"t15_2",2,"t15","COM(O)","OBJ>PP",4,"eher natürlich",8661,585791,72
209,"t15_2",2,"t15","COM(O)","OBJ>PP",2,"eher unnatürlich",6364,997800,98
167,"t15_2",2,"t15","COM(O)","OBJ>PP",3,"keine Tendenz",10623,197497,19
128,"t15_2",2,"t15","COM(O)","OBJ>PP",4,"eher natürlich",28872,924664,82
137,"t15_2",2,"t15","COM(O)","OBJ>PP",5,"vollkommen natürlich",6398,573727,70
208,"t15_2",2,"t15","COM(O)","OBJ>PP",4,"eher natürlich",8065,900892,73
199,"t15_2",2,"t15","COM(O)","OBJ>PP",2,"eher unnatürlich",19927,449165,32
155,"t15_2",2,"t15","COM(O)","OBJ>PP",5,"vollkommen natürlich",37994,405346,35
168,"t15_2",2,"t15","COM(O)","OBJ>PP",2,"eher unnatürlich",6627,203929,20
202,"t15_2",2,"t15","COM(O)","OBJ>PP",4,"eher natürlich",6928,859552,92
138,"t15_2",2,"t15","COM(O)","OBJ>PP",2,"eher unnatürlich",7702,403539,50
210,"t15_2",2,"t15","COM(O)","OBJ>PP",4,"eher natürlich",10895,283821,23
206,"t15_2",2,"t15","COM(O)","OBJ>PP",4,"eher natürlich",13829,232850,22
214,"t15_2",2,"t15","COM(O)","OBJ>PP",4,"eher natürlich",28956,2160056,89
181,"t15_2",2,"t15","COM(O)","OBJ>PP",4,"eher natürlich",6751,663979,88
205,"t15_2",2,"t15","COM(O)","OBJ>PP",4,"eher natürlich",18025,558948,53
197,"t15_2",2,"t15","COM(O)","OBJ>PP",4,"eher natürlich",39764,497988,33
215,"t15_2",2,"t15","COM(O)","OBJ>PP",5,"vollkommen natürlich",9549,499986,61
185,"t15_2",2,"t15","COM(O)","OBJ>PP",4,"eher natürlich",41610,584078,67
203,"t15_2",2,"t15","COM(O)","OBJ>PP",5,"vollkommen natürlich",9788,370536,52
201,"t15_2",2,"t15","COM(O)","OBJ>PP",4,"eher natürlich",9956,110848,12
211,"t15_2",2,"t15","COM(O)","OBJ>PP",4,"eher natürlich",3992,474063,70
130,"t15_2",2,"t15","COM(O)","OBJ>PP",4,"eher natürlich",8789,440034,32
200,"t15_2",2,"t15","COM(O)","OBJ>PP",2,"eher unnatürlich",10526,277590,23
179,"t15_2",2,"t15","COM(O)","OBJ>PP",4,"eher natürlich",7870,866575,103
158,"t15_2",2,"t15","COM(O)","OBJ>PP",5,"vollkommen natürlich",11018,138445,13
189,"t15_2",2,"t15","COM(O)","OBJ>PP",4,"eher natürlich",12388,306605,23
181,"t16_1",1,"t16","COM(O)","PP>OBJ",4,"eher natürlich",5301,273953,32
205,"t16_1",1,"t16","COM(O)","PP>OBJ",4,"eher natürlich",9521,967330,101
209,"t16_1",1,"t16","COM(O)","PP>OBJ",1,"vollkommen unnatürlich",13584,512310,41
168,"t16_1",1,"t16","COM(O)","PP>OBJ",4,"eher natürlich",5744,558149,55
202,"t16_1",1,"t16","COM(O)","PP>OBJ",2,"eher unnatürlich",13939,323029,34
167,"t16_1",1,"t16","COM(O)","PP>OBJ",2,"eher unnatürlich",10199,556282,59
197,"t16_1",1,"t16","COM(O)","PP>OBJ",4,"eher natürlich",10258,993440,85
180,"t16_1",1,"t16","COM(O)","PP>OBJ",2,"eher unnatürlich",7542,477792,49
185,"t16_1",1,"t16","COM(O)","PP>OBJ",4,"eher natürlich",5478,161097,20
147,"t16_1",1,"t16","COM(O)","PP>OBJ",2,"eher unnatürlich",8048,490503,61
128,"t16_1",1,"t16","COM(O)","PP>OBJ",3,"keine Tendenz",16597,680125,58
215,"t16_1",1,"t16","COM(O)","PP>OBJ",5,"vollkommen natürlich",6045,320629,41
213,"t16_1",1,"t16","COM(O)","PP>OBJ",5,"vollkommen natürlich",8009,469260,37
203,"t16_1",1,"t16","COM(O)","PP>OBJ",4,"eher natürlich",7761,245842,34
187,"t16_1",1,"t16","COM(O)","PP>OBJ",2,"eher unnatürlich",10514,221488,28
210,"t16_1",1,"t16","COM(O)","PP>OBJ",4,"eher natürlich",13950,731405,62
189,"t16_1",1,"t16","COM(O)","PP>OBJ",4,"eher natürlich",6958,913790,91
130,"t16_1",1,"t16","COM(O)","PP>OBJ",4,"eher natürlich",9325,697817,55
136,"t16_1",1,"t16","COM(O)","PP>OBJ",2,"eher unnatürlich",10278,162832,19
211,"t16_1",1,"t16","COM(O)","PP>OBJ",2,"eher unnatürlich",7229,245419,35
138,"t16_1",1,"t16","COM(O)","PP>OBJ",2,"eher unnatürlich",6625,52069,6
208,"t16_1",1,"t16","COM(O)","PP>OBJ",4,"eher natürlich",11066,472600,37
158,"t16_1",1,"t16","COM(O)","PP>OBJ",4,"eher natürlich",8106,331219,24
201,"t16_1",1,"t16","COM(O)","PP>OBJ",5,"vollkommen natürlich",6902,842785,105
155,"t16_1",1,"t16","COM(O)","PP>OBJ",4,"eher natürlich",12942,116497,10
132,"t16_1",1,"t16","COM(O)","PP>OBJ",2,"eher unnatürlich",9997,127706,15
183,"t16_1",1,"t16","COM(O)","PP>OBJ",1,"vollkommen unnatürlich",16866,239741,15
179,"t16_1",1,"t16","COM(O)","PP>OBJ",4,"eher natürlich",9643,327564,36
206,"t16_1",1,"t16","COM(O)","PP>OBJ",2,"eher unnatürlich",13851,101533,8
199,"t16_1",1,"t16","COM(O)","PP>OBJ",2,"eher unnatürlich",13791,394653,28
137,"t16_1",1,"t16","COM(O)","PP>OBJ",4,"eher natürlich",9230,886099,105
214,"t16_1",1,"t16","COM(O)","PP>OBJ",2,"eher unnatürlich",15786,585508,30
200,"t16_1",1,"t16","COM(O)","PP>OBJ",2,"eher unnatürlich",7054,484271,43
212,"t16_1",1,"t16","COM(O)","PP>OBJ",5,"vollkommen natürlich",6160,540371,50
204,"t16_1",1,"t16","COM(O)","PP>OBJ",4,"eher natürlich",4228,490678,55
160,"t16_2",2,"t16","COM(O)","OBJ>PP",4,"eher natürlich",6813,295009,41
156,"t16_2",2,"t16","COM(O)","OBJ>PP",2,"eher unnatürlich",10515,286420,21
177,"t16_2",2,"t16","COM(O)","OBJ>PP",4,"eher natürlich",6578,208568,15
193,"t16_2",2,"t16","COM(O)","OBJ>PP",5,"vollkommen natürlich",9070,719516,40
182,"t16_2",2,"t16","COM(O)","OBJ>PP",4,"eher natürlich",11165,262793,23
166,"t16_2",2,"t16","COM(O)","OBJ>PP",5,"vollkommen natürlich",5212,121903,18
135,"t16_2",2,"t16","COM(O)","OBJ>PP",4,"eher natürlich",6424,212256,26
192,"t16_2",2,"t16","COM(O)","OBJ>PP",4,"eher natürlich",7714,263072,27
161,"t16_2",2,"t16","COM(O)","OBJ>PP",3,"keine Tendenz",15260,490679,45
133,"t16_2",2,"t16","COM(O)","OBJ>PP",4,"eher natürlich",12235,116034,9
172,"t16_2",2,"t16","COM(O)","OBJ>PP",3,"keine Tendenz",11977,219533,17
163,"t16_2",2,"t16","COM(O)","OBJ>PP",4,"eher natürlich",10027,98456,12
165,"t16_2",2,"t16","COM(O)","OBJ>PP",2,"eher unnatürlich",5132,309776,38
175,"t16_2",2,"t16","COM(O)","OBJ>PP",4,"eher natürlich",5466,794058,98
176,"t16_2",2,"t16","COM(O)","OBJ>PP",5,"vollkommen natürlich",10124,114965,11
148,"t16_2",2,"t16","COM(O)","OBJ>PP",4,"eher natürlich",9133,1370606,66
149,"t16_2",2,"t16","COM(O)","OBJ>PP",4,"eher natürlich",8876,828539,54
178,"t16_2",2,"t16","COM(O)","OBJ>PP",5,"vollkommen natürlich",4353,346678,47
151,"t16_2",2,"t16","COM(O)","OBJ>PP",4,"eher natürlich",5470,141922,17
157,"t16_2",2,"t16","COM(O)","OBJ>PP",4,"eher natürlich",4218,386512,37
194,"t16_2",2,"t16","COM(O)","OBJ>PP",5,"vollkommen natürlich",7350,186053,20
169,"t16_2",2,"t16","COM(O)","OBJ>PP",5,"vollkommen natürlich",3904,212257,31
174,"t16_2",2,"t16","COM(O)","OBJ>PP",4,"eher natürlich",4452,760175,98
162,"t16_2",2,"t16","COM(O)","OBJ>PP",5,"vollkommen natürlich",8016,405643,41
170,"t16_2",2,"t16","COM(O)","OBJ>PP",2,"eher unnatürlich",8142,39199,6
190,"t16_2",2,"t16","COM(O)","OBJ>PP",2,"eher unnatürlich",5254,213179,29
191,"t16_2",2,"t16","COM(O)","OBJ>PP",3,"keine Tendenz",4001,766144,49
171,"t16_2",2,"t16","COM(O)","OBJ>PP",4,"eher natürlich",7013,742505,84
139,"t16_2",2,"t16","COM(O)","OBJ>PP",4,"eher natürlich",9867,875365,75
184,"t16_2",2,"t16","COM(O)","OBJ>PP",4,"eher natürlich",4556,732719,76
186,"t16_2",2,"t16","COM(O)","OBJ>PP",2,"eher unnatürlich",7802,673964,101
159,"t16_2",2,"t16","COM(O)","OBJ>PP",2,"eher unnatürlich",7044,428851,68
196,"t16_2",2,"t16","COM(O)","OBJ>PP",5,"vollkommen natürlich",5470,428111,77
150,"t16_2",2,"t16","COM(O)","OBJ>PP",4,"eher natürlich",12078,335029,25
131,"t16_2",2,"t16","COM(O)","OBJ>PP",4,"eher natürlich",8832,122195,12
134,"t16_2",2,"t16","COM(O)","OBJ>PP",4,"eher natürlich",5777,693217,91
149,"t17_1",1,"t17","COM(O)","PP>OBJ",2,"eher unnatürlich",7121,1080147,81
193,"t17_1",1,"t17","COM(O)","PP>OBJ",5,"vollkommen natürlich",20173,202457,8
161,"t17_1",1,"t17","COM(O)","PP>OBJ",3,"keine Tendenz",12633,213590,19
175,"t17_1",1,"t17","COM(O)","PP>OBJ",1,"vollkommen unnatürlich",5821,416233,49
171,"t17_1",1,"t17","COM(O)","PP>OBJ",4,"eher natürlich",9046,794761,91
169,"t17_1",1,"t17","COM(O)","PP>OBJ",4,"eher natürlich",5184,542821,94
184,"t17_1",1,"t17","COM(O)","PP>OBJ",2,"eher unnatürlich",7902,407434,35
135,"t17_1",1,"t17","COM(O)","PP>OBJ",3,"keine Tendenz",7362,538414,68
139,"t17_1",1,"t17","COM(O)","PP>OBJ",2,"eher unnatürlich",57428,828603,70
148,"t17_1",1,"t17","COM(O)","PP>OBJ",5,"vollkommen natürlich",9237,803895,48
176,"t17_1",1,"t17","COM(O)","PP>OBJ",4,"eher natürlich",6671,448073,48
186,"t17_1",1,"t17","COM(O)","PP>OBJ",2,"eher unnatürlich",7402,163730,21
174,"t17_1",1,"t17","COM(O)","PP>OBJ",4,"eher natürlich",4862,599661,72
192,"t17_1",1,"t17","COM(O)","PP>OBJ",4,"eher natürlich",8378,877884,50
150,"t17_1",1,"t17","COM(O)","PP>OBJ",4,"eher natürlich",8561,203475,14
157,"t17_1",1,"t17","COM(O)","PP>OBJ",4,"eher natürlich",5464,720364,75
156,"t17_1",1,"t17","COM(O)","PP>OBJ",2,"eher unnatürlich",6494,915808,91
165,"t17_1",1,"t17","COM(O)","PP>OBJ",4,"eher natürlich",8665,250401,28
177,"t17_1",1,"t17","COM(O)","PP>OBJ",3,"keine Tendenz",5089,398105,37
163,"t17_1",1,"t17","COM(O)","PP>OBJ",1,"vollkommen unnatürlich",10587,167491,21
162,"t17_1",1,"t17","COM(O)","PP>OBJ",2,"eher unnatürlich",5594,363357,37
190,"t17_1",1,"t17","COM(O)","PP>OBJ",3,"keine Tendenz",4807,279299,39
159,"t17_1",1,"t17","COM(O)","PP>OBJ",1,"vollkommen unnatürlich",5737,82885,10
151,"t17_1",1,"t17","COM(O)","PP>OBJ",2,"eher unnatürlich",14212,520850,62
131,"t17_1",1,"t17","COM(O)","PP>OBJ",2,"eher unnatürlich",7771,275350,29
170,"t17_1",1,"t17","COM(O)","PP>OBJ",1,"vollkommen unnatürlich",6382,131679,21
172,"t17_1",1,"t17","COM(O)","PP>OBJ",2,"eher unnatürlich",10787,338776,29
182,"t17_1",1,"t17","COM(O)","PP>OBJ",4,"eher natürlich",7553,650273,63
178,"t17_1",1,"t17","COM(O)","PP>OBJ",3,"keine Tendenz",8073,291213,39
166,"t17_1",1,"t17","COM(O)","PP>OBJ",4,"eher natürlich",6833,480923,71
196,"t17_1",1,"t17","COM(O)","PP>OBJ",5,"vollkommen natürlich",5710,509035,90
194,"t17_1",1,"t17","COM(O)","PP>OBJ",3,"keine Tendenz",14748,839540,91
133,"t17_1",1,"t17","COM(O)","PP>OBJ",2,"eher unnatürlich",7370,304976,23
160,"t17_1",1,"t17","COM(O)","PP>OBJ",4,"eher natürlich",5005,137167,16
191,"t17_1",1,"t17","COM(O)","PP>OBJ",3,"keine Tendenz",3571,931476,83
134,"t17_1",1,"t17","COM(O)","PP>OBJ",3,"keine Tendenz",7997,145525,16
187,"t17_2",2,"t17","COM(O)","OBJ>PP",4,"eher natürlich",11898,483390,58
168,"t17_2",2,"t17","COM(O)","OBJ>PP",4,"eher natürlich",9774,145161,14
185,"t17_2",2,"t17","COM(O)","OBJ>PP",4,"eher natürlich",13771,142770,17
181,"t17_2",2,"t17","COM(O)","OBJ>PP",4,"eher natürlich",9082,118053,14
212,"t17_2",2,"t17","COM(O)","OBJ>PP",5,"vollkommen natürlich",7016,413629,39
158,"t17_2",2,"t17","COM(O)","OBJ>PP",3,"keine Tendenz",19185,857476,72
128,"t17_2",2,"t17","COM(O)","OBJ>PP",4,"eher natürlich",6551,809691,72
167,"t17_2",2,"t17","COM(O)","OBJ>PP",3,"keine Tendenz",6615,602653,65
209,"t17_2",2,"t17","COM(O)","OBJ>PP",2,"eher unnatürlich",21416,215177,13
137,"t17_2",2,"t17","COM(O)","OBJ>PP",2,"eher unnatürlich",7276,333558,43
210,"t17_2",2,"t17","COM(O)","OBJ>PP",4,"eher natürlich",10710,640621,55
205,"t17_2",2,"t17","COM(O)","OBJ>PP",3,"keine Tendenz",10917,585842,56
200,"t17_2",2,"t17","COM(O)","OBJ>PP",5,"vollkommen natürlich",17806,1185550,105
202,"t17_2",2,"t17","COM(O)","OBJ>PP",4,"eher natürlich",12929,491543,55
147,"t17_2",2,"t17","COM(O)","OBJ>PP",2,"eher unnatürlich",4963,673380,84
208,"t17_2",2,"t17","COM(O)","OBJ>PP",4,"eher natürlich",16819,1197107,102
130,"t17_2",2,"t17","COM(O)","OBJ>PP",4,"eher natürlich",13915,1075754,89
211,"t17_2",2,"t17","COM(O)","OBJ>PP",2,"eher unnatürlich",6259,48974,6
155,"t17_2",2,"t17","COM(O)","OBJ>PP",5,"vollkommen natürlich",7615,616242,53
204,"t17_2",2,"t17","COM(O)","OBJ>PP",2,"eher unnatürlich",6101,115760,15
213,"t17_2",2,"t17","COM(O)","OBJ>PP",4,"eher natürlich",15731,958184,82
203,"t17_2",2,"t17","COM(O)","OBJ>PP",5,"vollkommen natürlich",5536,719483,71
215,"t17_2",2,"t17","COM(O)","OBJ>PP",5,"vollkommen natürlich",6071,188260,23
180,"t17_2",2,"t17","COM(O)","OBJ>PP",2,"eher unnatürlich",7029,765473,72
197,"t17_2",2,"t17","COM(O)","OBJ>PP",5,"vollkommen natürlich",5680,1048355,92
189,"t17_2",2,"t17","COM(O)","OBJ>PP",4,"eher natürlich",7852,750565,69
132,"t17_2",2,"t17","COM(O)","OBJ>PP",4,"eher natürlich",7205,553442,77
206,"t17_2",2,"t17","COM(O)","OBJ>PP",4,"eher natürlich",15495,903727,103
201,"t17_2",2,"t17","COM(O)","OBJ>PP",4,"eher natürlich",9837,134063,15
183,"t17_2",2,"t17","COM(O)","OBJ>PP",4,"eher natürlich",4653,1342106,105
214,"t17_2",2,"t17","COM(O)","OBJ>PP",4,"eher natürlich",21306,379385,20
179,"t17_2",2,"t17","COM(O)","OBJ>PP",4,"eher natürlich",9371,564776,65
199,"t17_2",2,"t17","COM(O)","OBJ>PP",5,"vollkommen natürlich",13142,1115157,83
138,"t17_2",2,"t17","COM(O)","OBJ>PP",2,"eher unnatürlich",6618,490039,57
136,"t17_2",2,"t17","COM(O)","OBJ>PP",2,"eher unnatürlich",7666,103721,12
201,"t18_1",1,"t18","COM(O)","PP>OBJ",1,"vollkommen unnatürlich",8917,307231,39
185,"t18_1",1,"t18","COM(O)","PP>OBJ",2,"eher unnatürlich",9278,110469,14
213,"t18_1",1,"t18","COM(O)","PP>OBJ",4,"eher natürlich",15069,286741,21
158,"t18_1",1,"t18","COM(O)","PP>OBJ",2,"eher unnatürlich",6438,1200031,103
168,"t18_1",1,"t18","COM(O)","PP>OBJ",2,"eher unnatürlich",5836,526420,51
147,"t18_1",1,"t18","COM(O)","PP>OBJ",2,"eher unnatürlich",7574,233783,28
155,"t18_1",1,"t18","COM(O)","PP>OBJ",4,"eher natürlich",6710,597204,51
206,"t18_1",1,"t18","COM(O)","PP>OBJ",2,"eher unnatürlich",14538,76185,6
208,"t18_1",1,"t18","COM(O)","PP>OBJ",4,"eher natürlich",8506,1105699,93
209,"t18_1",1,"t18","COM(O)","PP>OBJ",1,"vollkommen unnatürlich",7110,1046384,105
211,"t18_1",1,"t18","COM(O)","PP>OBJ",4,"eher natürlich",4779,582970,81
200,"t18_1",1,"t18","COM(O)","PP>OBJ",4,"eher natürlich",8846,607126,52
167,"t18_1",1,"t18","COM(O)","PP>OBJ",2,"eher unnatürlich",13824,790805,88
179,"t18_1",1,"t18","COM(O)","PP>OBJ",2,"eher unnatürlich",6888,253356,28
136,"t18_1",1,"t18","COM(O)","PP>OBJ",4,"eher natürlich",11310,583169,67
210,"t18_1",1,"t18","COM(O)","PP>OBJ",2,"eher unnatürlich",14453,699742,60
199,"t18_1",1,"t18","COM(O)","PP>OBJ",4,"eher natürlich",17318,792517,58
202,"t18_1",1,"t18","COM(O)","PP>OBJ",1,"vollkommen unnatürlich",6339,515473,58
138,"t18_1",1,"t18","COM(O)","PP>OBJ",1,"vollkommen unnatürlich",6705,719216,97
132,"t18_1",1,"t18","COM(O)","PP>OBJ",2,"eher unnatürlich",6651,143338,17
204,"t18_1",1,"t18","COM(O)","PP>OBJ",2,"eher unnatürlich",25235,215063,26
203,"t18_1",1,"t18","COM(O)","PP>OBJ",4,"eher natürlich",46993,453414,58
189,"t18_1",1,"t18","COM(O)","PP>OBJ",2,"eher unnatürlich",5169,467365,40
212,"t18_1",1,"t18","COM(O)","PP>OBJ",5,"vollkommen natürlich",9147,665962,66
215,"t18_1",1,"t18","COM(O)","PP>OBJ",5,"vollkommen natürlich",6625,597853,75
187,"t18_1",1,"t18","COM(O)","PP>OBJ",1,"vollkommen unnatürlich",7957,643426,81
183,"t18_1",1,"t18","COM(O)","PP>OBJ",1,"vollkommen unnatürlich",13638,1086076,75
180,"t18_1",1,"t18","COM(O)","PP>OBJ",1,"vollkommen unnatürlich",5525,916273,91
181,"t18_1",1,"t18","COM(O)","PP>OBJ",2,"eher unnatürlich",7192,344789,42
137,"t18_1",1,"t18","COM(O)","PP>OBJ",1,"vollkommen unnatürlich",22866,372877,46
205,"t18_1",1,"t18","COM(O)","PP>OBJ",4,"eher natürlich",11493,738105,73
197,"t18_1",1,"t18","COM(O)","PP>OBJ",4,"eher natürlich",19371,556092,39
128,"t18_1",1,"t18","COM(O)","PP>OBJ",4,"eher natürlich",14393,869917,78
130,"t18_1",1,"t18","COM(O)","PP>OBJ",4,"eher natürlich",10767,301965,20
214,"t18_1",1,"t18","COM(O)","PP>OBJ",2,"eher unnatürlich",12210,611704,32
192,"t18_2",2,"t18","COM(O)","OBJ>PP",2,"eher unnatürlich",11148,430929,44
131,"t18_2",2,"t18","COM(O)","OBJ>PP",3,"keine Tendenz",7896,529626,62
163,"t18_2",2,"t18","COM(O)","OBJ>PP",2,"eher unnatürlich",6785,455479,63
190,"t18_2",2,"t18","COM(O)","OBJ>PP",2,"eher unnatürlich",8982,443924,62
169,"t18_2",2,"t18","COM(O)","OBJ>PP",5,"vollkommen natürlich",3654,285767,45
165,"t18_2",2,"t18","COM(O)","OBJ>PP",4,"eher natürlich",9390,399383,52
162,"t18_2",2,"t18","COM(O)","OBJ>PP",5,"vollkommen natürlich",5796,871113,102
149,"t18_2",2,"t18","COM(O)","OBJ>PP",2,"eher unnatürlich",10153,487449,23
159,"t18_2",2,"t18","COM(O)","OBJ>PP",1,"vollkommen unnatürlich",3911,396668,62
196,"t18_2",2,"t18","COM(O)","OBJ>PP",4,"eher natürlich",6731,149423,23
193,"t18_2",2,"t18","COM(O)","OBJ>PP",5,"vollkommen natürlich",9109,1507552,97
191,"t18_2",2,"t18","COM(O)","OBJ>PP",3,"keine Tendenz",2986,787840,54
175,"t18_2",2,"t18","COM(O)","OBJ>PP",4,"eher natürlich",5799,664399,79
194,"t18_2",2,"t18","COM(O)","OBJ>PP",4,"eher natürlich",7780,387574,44
171,"t18_2",2,"t18","COM(O)","OBJ>PP",4,"eher natürlich",10311,906001,104
151,"t18_2",2,"t18","COM(O)","OBJ>PP",2,"eher unnatürlich",6702,807815,97
170,"t18_2",2,"t18","COM(O)","OBJ>PP",2,"eher unnatürlich",5056,49104,8
134,"t18_2",2,"t18","COM(O)","OBJ>PP",4,"eher natürlich",5169,393017,51
139,"t18_2",2,"t18","COM(O)","OBJ>PP",4,"eher natürlich",6982,655396,58
182,"t18_2",2,"t18","COM(O)","OBJ>PP",4,"eher natürlich",6405,1039142,101
184,"t18_2",2,"t18","COM(O)","OBJ>PP",4,"eher natürlich",8982,327939,28
156,"t18_2",2,"t18","COM(O)","OBJ>PP",1,"vollkommen unnatürlich",12615,248525,17
133,"t18_2",2,"t18","COM(O)","OBJ>PP",4,"eher natürlich",8435,1158977,96
157,"t18_2",2,"t18","COM(O)","OBJ>PP",4,"eher natürlich",5319,354910,32
161,"t18_2",2,"t18","COM(O)","OBJ>PP",3,"keine Tendenz",14161,1166318,98
160,"t18_2",2,"t18","COM(O)","OBJ>PP",4,"eher natürlich",7302,388279,54
186,"t18_2",2,"t18","COM(O)","OBJ>PP",2,"eher unnatürlich",7192,144053,18
150,"t18_2",2,"t18","COM(O)","OBJ>PP",4,"eher natürlich",11400,521696,43
178,"t18_2",2,"t18","COM(O)","OBJ>PP",4,"eher natürlich",8213,202366,24
176,"t18_2",2,"t18","COM(O)","OBJ>PP",5,"vollkommen natürlich",10245,577412,66
174,"t18_2",2,"t18","COM(O)","OBJ>PP",3,"keine Tendenz",11751,439974,49
177,"t18_2",2,"t18","COM(O)","OBJ>PP",3,"keine Tendenz",8277,411660,39
166,"t18_2",2,"t18","COM(O)","OBJ>PP",5,"vollkommen natürlich",9143,98590,15
135,"t18_2",2,"t18","COM(O)","OBJ>PP",2,"eher unnatürlich",7184,308138,39
148,"t18_2",2,"t18","COM(O)","OBJ>PP",4,"eher natürlich",8780,1683190,79
172,"t18_2",2,"t18","COM(O)","OBJ>PP",4,"eher natürlich",8470,548717,49
190,"t19_1",1,"t19","COM(O)","PP>OBJ",1,"vollkommen unnatürlich",5399,517787,72
163,"t19_1",1,"t19","COM(O)","PP>OBJ",1,"vollkommen unnatürlich",7395,197760,26
139,"t19_1",1,"t19","COM(O)","PP>OBJ",2,"eher unnatürlich",5973,1071071,91
159,"t19_1",1,"t19","COM(O)","PP>OBJ",2,"eher unnatürlich",5841,520025,83
178,"t19_1",1,"t19","COM(O)","PP>OBJ",2,"eher unnatürlich",4373,585997,93
177,"t19_1",1,"t19","COM(O)","PP>OBJ",4,"eher natürlich",8243,277824,23
151,"t19_1",1,"t19","COM(O)","PP>OBJ",3,"keine Tendenz",13325,498257,60
135,"t19_1",1,"t19","COM(O)","PP>OBJ",1,"vollkommen unnatürlich",6296,870098,105
162,"t19_1",1,"t19","COM(O)","PP>OBJ",5,"vollkommen natürlich",8163,579871,62
194,"t19_1",1,"t19","COM(O)","PP>OBJ",3,"keine Tendenz",6732,544152,60
170,"t19_1",1,"t19","COM(O)","PP>OBJ",2,"eher unnatürlich",3836,510725,87
131,"t19_1",1,"t19","COM(O)","PP>OBJ",4,"eher natürlich",7361,514787,60
150,"t19_1",1,"t19","COM(O)","PP>OBJ",2,"eher unnatürlich",13809,292575,21
149,"t19_1",1,"t19","COM(O)","PP>OBJ",1,"vollkommen unnatürlich",6688,592219,34
161,"t19_1",1,"t19","COM(O)","PP>OBJ",4,"eher natürlich",10683,93182,8
134,"t19_1",1,"t19","COM(O)","PP>OBJ",3,"keine Tendenz",7694,180285,21
171,"t19_1",1,"t19","COM(O)","PP>OBJ",3,"keine Tendenz",9007,228743,23
193,"t19_1",1,"t19","COM(O)","PP>OBJ",4,"eher natürlich",9734,1150891,69
166,"t19_1",1,"t19","COM(O)","PP>OBJ",4,"eher natürlich",5579,83295,13
133,"t19_1",1,"t19","COM(O)","PP>OBJ",2,"eher unnatürlich",8767,971123,80
191,"t19_1",1,"t19","COM(O)","PP>OBJ",2,"eher unnatürlich",4306,775900,51
165,"t19_1",1,"t19","COM(O)","PP>OBJ",2,"eher unnatürlich",5213,319531,40
196,"t19_1",1,"t19","COM(O)","PP>OBJ",4,"eher natürlich",3820,499450,88
182,"t19_1",1,"t19","COM(O)","PP>OBJ",4,"eher natürlich",6772,618525,60
176,"t19_1",1,"t19","COM(O)","PP>OBJ",4,"eher natürlich",8487,395659,41
175,"t19_1",1,"t19","COM(O)","PP>OBJ",2,"eher unnatürlich",5461,262848,32
160,"t19_1",1,"t19","COM(O)","PP>OBJ",4,"eher natürlich",4662,277622,39
186,"t19_1",1,"t19","COM(O)","PP>OBJ",1,"vollkommen unnatürlich",6292,181524,24
172,"t19_1",1,"t19","COM(O)","PP>OBJ",2,"eher unnatürlich",8072,990627,94
174,"t19_1",1,"t19","COM(O)","PP>OBJ",4,"eher natürlich",6225,646875,80
169,"t19_1",1,"t19","COM(O)","PP>OBJ",2,"eher unnatürlich",9192,61265,6
157,"t19_1",1,"t19","COM(O)","PP>OBJ",1,"vollkommen unnatürlich",13137,436877,42
156,"t19_1",1,"t19","COM(O)","PP>OBJ",2,"eher unnatürlich",13335,533101,47
184,"t19_1",1,"t19","COM(O)","PP>OBJ",4,"eher natürlich",6310,574978,55
192,"t19_1",1,"t19","COM(O)","PP>OBJ",4,"eher natürlich",8308,1213261,89
148,"t19_1",1,"t19","COM(O)","PP>OBJ",4,"eher natürlich",8763,1976494,104
213,"t19_2",2,"t19","COM(O)","OBJ>PP",3,"keine Tendenz",17442,221134,17
208,"t19_2",2,"t19","COM(O)","OBJ>PP",4,"eher natürlich",8734,1145875,97
155,"t19_2",2,"t19","COM(O)","OBJ>PP",5,"vollkommen natürlich",9537,439059,39
200,"t19_2",2,"t19","COM(O)","OBJ>PP",4,"eher natürlich",14270,869422,75
199,"t19_2",2,"t19","COM(O)","OBJ>PP",5,"vollkommen natürlich",15806,714981,52
180,"t19_2",2,"t19","COM(O)","OBJ>PP",3,"keine Tendenz",7542,977457,98
212,"t19_2",2,"t19","COM(O)","OBJ>PP",5,"vollkommen natürlich",6696,754037,78
179,"t19_2",2,"t19","COM(O)","OBJ>PP",4,"eher natürlich",5441,516358,59
215,"t19_2",2,"t19","COM(O)","OBJ>PP",5,"vollkommen natürlich",4404,778638,100
147,"t19_2",2,"t19","COM(O)","OBJ>PP",3,"keine Tendenz",5639,717488,90
185,"t19_2",2,"t19","COM(O)","OBJ>PP",5,"vollkommen natürlich",5266,637279,69
206,"t19_2",2,"t19","COM(O)","OBJ>PP",2,"eher unnatürlich",6290,779982,88
201,"t19_2",2,"t19","COM(O)","OBJ>PP",5,"vollkommen natürlich",6509,147206,17
168,"t19_2",2,"t19","COM(O)","OBJ>PP",4,"eher natürlich",10348,635186,64
214,"t19_2",2,"t19","COM(O)","OBJ>PP",4,"eher natürlich",7785,1119289,58
128,"t19_2",2,"t19","COM(O)","OBJ>PP",4,"eher natürlich",9866,999470,89
138,"t19_2",2,"t19","COM(O)","OBJ>PP",2,"eher unnatürlich",6075,103603,14
209,"t19_2",2,"t19","COM(O)","OBJ>PP",1,"vollkommen unnatürlich",5266,625251,51
202,"t19_2",2,"t19","COM(O)","OBJ>PP",4,"eher natürlich",7485,257115,27
211,"t19_2",2,"t19","COM(O)","OBJ>PP",4,"eher natürlich",5515,410089,61
137,"t19_2",2,"t19","COM(O)","OBJ>PP",5,"vollkommen natürlich",9958,397141,49
210,"t19_2",2,"t19","COM(O)","OBJ>PP",4,"eher natürlich",8211,657956,57
197,"t19_2",2,"t19","COM(O)","OBJ>PP",5,"vollkommen natürlich",7508,866796,72
189,"t19_2",2,"t19","COM(O)","OBJ>PP",4,"eher natürlich",11741,1013318,101
136,"t19_2",2,"t19","COM(O)","OBJ>PP",2,"eher unnatürlich",6014,203987,25
181,"t19_2",2,"t19","COM(O)","OBJ>PP",4,"eher natürlich",4761,496535,65
167,"t19_2",2,"t19","COM(O)","OBJ>PP",3,"keine Tendenz",5780,767517,86
183,"t19_2",2,"t19","COM(O)","OBJ>PP",4,"eher natürlich",12616,1166926,83
203,"t19_2",2,"t19","COM(O)","OBJ>PP",5,"vollkommen natürlich",10254,865609,97
158,"t19_2",2,"t19","COM(O)","OBJ>PP",4,"eher natürlich",15888,1236786,105
130,"t19_2",2,"t19","COM(O)","OBJ>PP",4,"eher natürlich",12299,415114,30
205,"t19_2",2,"t19","COM(O)","OBJ>PP",4,"eher natürlich",9396,757709,76
187,"t19_2",2,"t19","COM(O)","OBJ>PP",4,"eher natürlich",14953,265587,33
204,"t19_2",2,"t19","COM(O)","OBJ>PP",2,"eher unnatürlich",5353,87311,10
132,"t19_2",2,"t19","COM(O)","OBJ>PP",4,"eher natürlich",6902,517691,72
197,"t20_1",1,"t20","COM(O)","PP>OBJ",5,"vollkommen natürlich",10403,909937,76
138,"t20_1",1,"t20","COM(O)","PP>OBJ",2,"eher unnatürlich",5379,770561,105
130,"t20_1",1,"t20","COM(O)","PP>OBJ",4,"eher natürlich",18281,509209,38
168,"t20_1",1,"t20","COM(O)","PP>OBJ",1,"vollkommen unnatürlich",11879,176950,17
213,"t20_1",1,"t20","COM(O)","PP>OBJ",4,"eher natürlich",12087,537701,45
128,"t20_1",1,"t20","COM(O)","PP>OBJ",4,"eher natürlich",6570,745133,65
200,"t20_1",1,"t20","COM(O)","PP>OBJ",4,"eher natürlich",13623,944046,83
147,"t20_1",1,"t20","COM(O)","PP>OBJ",2,"eher unnatürlich",6365,160569,19
203,"t20_1",1,"t20","COM(O)","PP>OBJ",5,"vollkommen natürlich",5159,255647,36
205,"t20_1",1,"t20","COM(O)","PP>OBJ",4,"eher natürlich",10054,453762,43
208,"t20_1",1,"t20","COM(O)","PP>OBJ",2,"eher unnatürlich",17405,278369,20
187,"t20_1",1,"t20","COM(O)","PP>OBJ",4,"eher natürlich",10659,671274,84
189,"t20_1",1,"t20","COM(O)","PP>OBJ",4,"eher natürlich",8564,803437,76
